File: Tinius-Olsen_Levitation_force/Measurements/20231204_1344cut1_highN_2.txt
4/12/2023 1:44:46 pm
Time(s)	Displacement(mm)	Force(N)
0.0000	-281.7970	1.0299
0.3615	-281.7970	1.0303
0.6619	-281.7970	1.0313
0.9636	-281.7970	1.0273
1.2642	-281.7970	1.0368
1.5642	-281.7970	1.0308
1.8642	-281.7970	1.0328
2.1645	-281.7970	1.0335
2.4637	-281.7970	1.0306
2.7641	-281.7970	1.0278
3.0639	-281.7970	1.0276
3.3639	-281.7970	1.0280
3.6658	-281.7970	1.0275
3.9672	-281.7970	1.0294
4.2681	-281.7970	1.0322
4.5700	-281.7970	1.0284
4.8710	-281.7970	1.0250
5.1724	-281.7970	1.0319
5.4739	-281.7970	1.0327
5.7740	-281.7970	1.0331
6.0744	-281.7970	1.0297
6.3775	-281.7970	1.0311
6.6785	-281.7970	1.0351
6.9986	-281.0000	1.0326
7.2987	-281.0000	1.0411
7.5989	-281.0000	1.0386
7.8997	-281.0000	1.0380
8.1990	-281.0000	1.0356
8.4996	-281.0000	1.0336
8.8000	-281.0000	1.0362
9.1002	-281.0000	1.0370
9.3998	-281.0000	1.0292
9.7006	-281.0000	1.0325
10.0013	-281.0000	1.0313
10.3041	-281.0000	1.0354
10.6038	-281.0000	1.0346
10.9039	-281.0000	1.0329
11.2041	-281.0000	1.0334
11.5045	-281.0000	1.0326
11.8051	-281.0000	1.0335
12.1050	-281.0000	1.0315
12.4054	-281.0000	1.0301
12.7055	-281.0000	1.0331
13.0057	-281.0000	1.0332
13.3058	-281.0000	1.0360
13.6068	-281.0000	1.0325
13.9073	-281.0000	1.0351
14.2088	-281.0000	1.0308
14.5082	-281.0000	1.0338
14.8091	-281.0000	1.0380
15.1102	-281.0000	1.0328
15.4101	-281.0000	1.0359
15.7103	-281.0000	1.0379
16.0102	-281.0000	1.0324
16.3110	-281.0000	1.0401
16.6124	-281.0000	1.0355
16.9120	-281.0000	1.0357
17.2140	-281.0000	1.0330
17.5148	-281.0000	1.0350
17.8157	-281.0000	1.0375
18.1169	-281.0000	1.0361
18.4186	-281.0000	1.0359
18.7185	-281.0000	1.0347
19.0192	-281.0000	1.0355
19.3199	-281.0000	1.0371
19.6215	-281.0000	1.0344
19.9216	-281.0000	1.0373
20.2216	-281.0000	1.0345
20.5228	-281.0000	1.0378
20.8230	-281.0000	1.0333
21.1238	-281.0000	1.0389
21.4237	-281.0000	1.0320
21.7249	-281.0000	1.0331
22.0278	-281.0000	1.0324
22.3293	-281.0000	1.0325
22.6292	-281.0000	1.0340
22.9292	-281.0000	1.0340
23.2292	-281.0000	1.0380
23.5293	-281.0000	1.0323
23.8313	-281.0000	1.0308
24.1547	-280.4450	1.0619
24.4543	-280.0000	1.0372
24.7559	-280.0000	1.0428
25.0562	-280.0000	1.0399
25.3568	-280.0000	1.0401
25.6590	-280.0000	1.0377
25.9612	-280.0000	1.0369
26.2610	-280.0000	1.0402
26.5632	-280.0000	1.0376
26.8641	-280.0000	1.0447
27.1666	-280.0000	1.0379
27.4673	-280.0000	1.0364
27.7685	-280.0000	1.0372
28.0706	-280.0000	1.0345
28.3704	-280.0000	1.0397
28.6715	-280.0000	1.0396
28.9713	-280.0000	1.0374
29.2718	-280.0000	1.0397
29.5717	-280.0000	1.0377
29.8722	-280.0000	1.0421
30.1729	-280.0000	1.0460
30.4732	-280.0000	1.0416
30.7744	-280.0000	1.0396
31.0762	-280.0000	1.0391
31.3776	-280.0000	1.0468
31.6783	-280.0000	1.0384
31.9799	-280.0000	1.0367
32.2793	-280.0000	1.0433
32.5795	-280.0000	1.0355
32.8793	-280.0000	1.0390
33.1793	-280.0000	1.0349
33.4819	-280.0000	1.0434
33.7813	-280.0000	1.0456
34.0815	-280.0000	1.0413
34.3814	-280.0000	1.0432
34.6825	-280.0000	1.0423
34.9833	-280.0000	1.0435
35.2838	-280.0000	1.0392
35.5835	-280.0000	1.0396
35.8831	-280.0000	1.0404
36.1845	-280.0000	1.0399
36.4843	-280.0000	1.0391
36.7862	-280.0000	1.0433
37.0877	-280.0000	1.0390
37.3891	-280.0000	1.0392
37.6902	-280.0000	1.0423
37.9914	-280.0000	1.0409
38.2918	-280.0000	1.0405
38.5914	-280.0000	1.0428
38.8916	-280.0000	1.0420
39.1914	-280.0000	1.0415
39.4918	-280.0000	1.0398
39.7925	-280.0000	1.0407
40.0924	-280.0000	1.0424
40.3954	-280.0000	1.0426
40.6963	-280.0000	1.0449
40.9975	-280.0000	1.0433
41.2984	-280.0000	1.0423
41.5983	-280.0000	1.0417
41.8995	-280.0000	1.0360
42.2021	-280.0000	1.0372
42.5018	-280.0000	1.0427
42.8025	-280.0000	1.0426
43.1033	-280.0000	1.0386
43.4051	-280.0000	1.0420
43.7044	-280.0000	1.0381
44.0052	-280.0000	1.0389
44.3054	-280.0000	1.0414
44.6060	-280.0000	1.0383
44.9071	-280.0000	1.0385
45.2091	-280.0000	1.0418
45.5094	-280.0000	1.0428
45.8095	-280.0000	1.0385
46.1095	-280.0000	1.0461
46.4096	-280.0000	1.0415
46.7112	-280.0000	1.0408
47.0118	-280.0000	1.0300
47.3119	-280.0000	1.0311
47.6119	-280.0000	1.0407
47.9129	-280.0000	1.0458
48.2138	-280.0000	1.0420
48.5150	-280.0000	1.0392
48.8144	-280.0000	1.0349
49.1155	-280.0000	1.0421
49.4165	-280.0000	1.0409
49.7174	-280.0000	1.0398
50.0187	-280.0000	1.0387
50.3185	-280.0000	1.0419
50.6195	-280.0000	1.0400
50.9202	-280.0000	1.0372
51.2213	-280.0000	1.0359
51.5224	-280.0000	1.0443
51.8233	-280.0000	1.0375
52.1259	-280.0000	1.0378
52.4256	-280.0000	1.0383
52.7268	-280.0000	1.0407
53.0264	-280.0000	1.0405
53.3272	-280.0000	1.0417
53.6272	-280.0000	1.0422
53.9279	-280.0000	1.0448
54.2277	-280.0000	1.0358
54.5277	-280.0000	1.0310
54.8284	-280.0000	1.0379
55.1283	-280.0000	1.0403
55.4283	-280.0000	1.0380
55.7293	-280.0000	1.0372
56.0283	-280.0000	1.0452
56.3285	-280.0000	1.0328
56.6283	-280.0000	1.0437
56.9302	-280.0000	1.0418
57.2320	-280.0000	1.0405
57.5319	-280.0000	1.0363
57.8315	-280.0000	1.0392
58.1320	-280.0000	1.0413
58.4327	-280.0000	1.0411
58.7339	-280.0000	1.0371
59.0352	-280.0000	1.0448
59.3349	-280.0000	1.0392
59.6369	-280.0000	1.0393
59.9367	-280.0000	1.0420
60.2382	-280.0000	1.0435
60.5383	-280.0000	1.0438
60.8380	-280.0000	1.0405
61.1379	-280.0000	1.0398
61.4394	-280.0000	1.0405
61.7418	-280.0000	1.0362
62.0414	-280.0000	1.0389
62.3428	-280.0000	1.0413
62.6439	-280.0000	1.0400
62.9457	-280.0000	1.0376
63.2454	-280.0000	1.0361
63.5466	-280.0000	1.0366
63.8489	-280.0000	1.0378
64.1496	-280.0000	1.0405
64.4507	-280.0000	1.0346
64.7521	-280.0000	1.0373
65.0518	-280.0000	1.0402
65.3516	-280.0000	1.0454
65.6518	-280.0000	1.0430
65.9518	-280.0000	1.0425
66.2521	-280.0000	1.0469
66.5531	-280.0000	1.0363
66.8529	-280.0000	1.0448
67.1533	-280.0000	1.0287
67.4531	-280.0000	1.0470
67.7526	-280.0000	1.0526
68.0531	-280.0000	1.0355
68.3532	-280.0000	1.0406
68.6539	-280.0000	1.0409
68.9548	-280.0000	1.0357
69.2549	-280.0000	1.0303
69.5564	-280.0000	1.0363
69.8565	-280.0000	1.0357
70.1567	-280.0000	1.0406
70.4567	-280.0000	1.0477
70.7565	-280.0000	1.0406
71.0584	-280.0000	1.0319
71.3581	-280.0000	1.0582
71.6580	-280.0000	1.0423
71.9578	-280.0000	1.0390
72.2587	-280.0000	1.0446
72.5598	-280.0000	1.0391
72.8598	-280.0000	1.0473
73.1597	-280.0000	1.0363
73.4598	-280.0000	1.0350
73.7598	-280.0000	1.0400
74.0608	-280.0000	1.0414
74.3615	-280.0000	1.0451
74.6617	-280.0000	1.0397
74.9640	-280.0000	1.0422
75.2647	-280.0000	1.0433
75.5687	-280.0000	1.0351
75.8675	-280.0000	1.0470
76.1688	-280.0000	1.0409
76.4686	-280.0000	1.0380
76.7695	-280.0000	1.0289
77.0711	-280.0000	1.0533
77.3720	-280.0000	1.0613
77.6717	-280.0000	1.0433
77.9722	-280.0000	1.0403
78.2735	-280.0000	1.0376
78.5752	-280.0000	1.0553
78.8760	-280.0000	1.0472
79.1765	-280.0000	1.0375
79.4762	-280.0000	1.0465
79.7771	-280.0000	1.0364
80.0774	-280.0000	1.0513
80.3772	-280.0000	1.0485
80.6772	-280.0000	1.0458
80.9773	-280.0000	1.0502
81.2778	-280.0000	1.0331
81.5780	-280.0000	1.0421
81.8776	-280.0000	1.0414
82.1790	-280.0000	1.0409
82.4799	-280.0000	1.0429
82.7808	-280.0000	1.0441
83.0826	-280.0000	1.0386
83.3848	-280.0000	1.0504
83.6865	-280.0000	1.0382
83.9866	-280.0000	1.0493
84.2868	-280.0000	1.0484
84.5882	-280.0000	1.0408
84.8891	-280.0000	1.0548
85.1891	-280.0000	1.0435
85.4896	-280.0000	1.0491
85.7896	-280.0000	1.0343
86.0899	-280.0000	1.0300
86.3899	-280.0000	1.0390
86.6912	-280.0000	1.0479
86.9917	-280.0000	1.0454
87.2925	-280.0000	1.0462
87.5931	-280.0000	1.0357
87.8940	-280.0000	1.0182
88.1937	-280.0000	1.0406
88.4950	-280.0000	1.0389
88.7948	-280.0000	1.0433
89.0959	-280.0000	1.0529
89.3977	-280.0000	1.0560
89.6983	-280.0000	1.0500
89.9996	-280.0000	1.0336
90.2990	-280.0000	1.0474
90.5990	-280.0000	1.0379
90.8997	-280.0000	1.0325
91.2000	-280.0000	1.0373
91.5015	-280.0000	1.0294
91.8011	-280.0000	1.0366
92.1021	-280.0000	1.0356
92.4023	-280.0000	1.0646
92.7027	-280.0000	1.0288
93.0034	-280.0000	1.0349
93.3031	-280.0000	1.0343
93.6036	-280.0000	1.0387
93.9029	-280.0000	1.0349
94.2028	-280.0000	1.0380
94.5032	-280.0000	1.0572
94.8057	-280.0000	1.0609
95.1050	-280.0000	1.0466
95.4056	-280.0000	1.0435
95.7049	-280.0000	1.0568
96.0067	-280.0000	1.0467
96.3063	-280.0000	1.0278
96.6073	-280.0000	1.0247
96.9083	-280.0000	1.0402
97.2086	-280.0000	1.0294
97.5082	-280.0000	1.0301
97.8079	-280.0000	1.0365
98.1079	-280.0000	1.0237
98.4100	-280.0000	1.0403
98.7100	-280.0000	1.0305
99.0100	-280.0000	1.0588
99.3111	-280.0000	1.0520
99.6121	-280.0000	1.0416
99.9122	-280.0000	1.0379
100.2134	-280.0000	1.0336
100.5142	-280.0000	1.0275
100.8141	-280.0000	1.0512
101.1150	-280.0000	1.0335
101.4156	-280.0000	1.0476
101.7160	-280.0000	1.0493
102.0163	-280.0000	1.0358
102.3160	-280.0000	1.0469
102.6160	-280.0000	1.0348
102.9167	-280.0000	1.0483
103.2161	-280.0000	1.0563
103.5179	-280.0000	1.0357
103.8180	-280.0000	1.0514
104.1199	-280.0000	1.0571
104.4205	-280.0000	1.0309
104.7201	-280.0000	1.0656
105.0234	-280.0000	1.0343
105.3237	-280.0000	1.0421
105.6234	-280.0000	1.0475
105.9237	-280.0000	1.0600
106.2230	-280.0000	1.0321
106.5234	-280.0000	1.0376
106.8244	-280.0000	1.0307
107.1246	-280.0000	1.0400
107.4260	-280.0000	1.0740
107.7269	-280.0000	1.0523
108.0283	-280.0000	1.0506
108.3281	-280.0000	1.0446
108.6294	-280.0000	1.0430
108.9302	-280.0000	1.0136
109.2301	-280.0000	1.0558
109.5301	-280.0000	1.0379
109.8301	-280.0000	1.0402
110.1302	-280.0000	1.0367
110.4303	-280.0000	1.0484
110.7302	-280.0000	1.0267
111.0301	-280.0000	1.0301
111.3309	-280.0000	1.0438
111.6317	-280.0000	1.0462
111.9311	-280.0000	1.0293
112.2313	-280.0000	1.0317
112.5337	-280.0000	1.0448
112.8341	-280.0000	1.0441
113.1361	-280.0000	1.0539
113.4351	-280.0000	1.0550
113.7359	-280.0000	1.0417
114.0380	-280.0000	1.0578
114.3385	-280.0000	1.0538
114.6390	-280.0000	1.0404
114.9395	-280.0000	1.0325
115.2406	-280.0000	1.0406
115.5402	-280.0000	1.0501
115.8402	-280.0000	1.0355
116.1619	-281.2120	1.0379
116.4616	-283.2280	1.0257
116.7640	-285.2450	1.0068
117.0642	-287.2280	0.9946
117.3668	-289.2450	1.0043
117.6662	-291.2610	0.9628
117.9681	-293.2780	0.9147
118.2709	-295.2950	0.8789
118.5712	-297.2760	0.8262
118.8722	-299.2960	0.7562
119.1744	-301.3150	0.6810
119.4768	-303.3310	0.5247
119.7772	-305.3140	0.3487
120.0781	-307.3310	0.1047
120.3802	-309.3470	-0.2385
120.6800	-311.3290	-0.7130
120.9816	-313.3510	-1.4171
121.2825	-315.3670	-2.3264
121.5825	-316.8020	-3.4965
121.8824	-316.8010	-3.9151
122.1826	-316.8010	-3.4753
122.4827	-316.8000	-3.3162
122.7827	-316.8000	-3.2177
123.0825	-316.8000	-3.1451
123.3825	-316.8000	-3.0875
123.6831	-316.8000	-3.0464
123.9850	-316.8000	-3.0126
124.2840	-316.8000	-2.9840
124.5842	-316.8000	-2.9459
124.8847	-316.8000	-2.9323
125.1866	-316.8000	-2.9075
125.4879	-316.8000	-2.8781
125.7872	-316.8000	-2.8606
126.0893	-316.8000	-2.8510
126.3900	-316.8000	-2.8259
126.6898	-316.8000	-2.8102
126.9898	-316.8000	-2.7952
127.2903	-316.8000	-2.7798
127.5902	-316.8000	-2.7762
127.8903	-316.8000	-2.7736
128.1916	-316.8000	-2.7552
128.4919	-316.8000	-2.7566
128.7915	-316.8000	-2.7414
129.0939	-316.8000	-2.7265
129.3951	-316.8000	-2.7202
129.6960	-316.8000	-2.7091
129.9977	-316.8000	-2.6933
130.2981	-316.8000	-2.6861
130.5985	-316.8000	-2.6913
130.8994	-316.8000	-2.6697
131.2004	-316.8000	-2.6657
131.5025	-316.8000	-2.6710
131.8051	-316.8000	-2.6646
132.1043	-316.8000	-2.6494
132.4056	-316.8000	-2.6455
132.7051	-316.8000	-2.6429
133.0091	-316.8000	-2.6341
133.3090	-316.8000	-2.6251
133.6082	-316.8000	-2.6218
133.9103	-316.8000	-2.6217
134.2126	-316.8000	-2.6174
134.5135	-316.8000	-2.6113
134.8134	-316.8000	-2.6027
135.1133	-316.8000	-2.5972
135.4139	-316.8000	-2.5903
135.7151	-316.8000	-2.5889
136.0151	-316.8000	-2.5753
136.3159	-316.8000	-2.5812
136.6158	-316.8000	-2.5774
136.9163	-316.8000	-2.5734
137.2174	-316.8000	-2.5760
137.5178	-316.8000	-2.5602
137.8186	-316.8000	-2.5612
138.1186	-316.8000	-2.5569
138.4184	-316.8000	-2.5553
138.7198	-316.8000	-2.5541
139.0205	-316.8000	-2.5457
139.3218	-316.8000	-2.5427
139.6226	-316.8000	-2.5362
139.9226	-316.8000	-2.5374
140.2224	-316.8000	-2.5271
140.5222	-316.8000	-2.5264
140.8227	-316.8000	-2.5269
141.1224	-316.8000	-2.5224
141.4240	-316.8000	-2.5211
141.7239	-316.8000	-2.5121
142.0247	-316.8000	-2.5175
142.3279	-316.8000	-2.5054
142.6282	-316.8000	-2.5139
142.9293	-316.8000	-2.5064
143.2313	-316.8000	-2.4982
143.5326	-316.8000	-2.5003
143.8327	-316.8000	-2.4991
144.1352	-316.8000	-2.4941
144.4343	-316.8000	-2.4914
144.7356	-316.8000	-2.4912
145.0362	-316.8000	-2.4879
145.3362	-316.8000	-2.4821
145.6359	-316.8000	-2.4827
145.9364	-316.8000	-2.4775
146.2366	-316.8000	-2.4729
146.5385	-316.8000	-2.4738
146.8392	-316.8000	-2.4718
147.1399	-316.8000	-2.4704
147.4405	-316.8000	-2.4671
147.7404	-316.8000	-2.4660
148.0403	-316.8000	-2.4624
148.3422	-316.8000	-2.4633
148.6427	-316.8000	-2.4613
148.9444	-316.8000	-2.4535
149.2459	-316.8000	-2.4521
149.5456	-316.8000	-2.4488
149.8472	-316.8000	-2.4483
150.1474	-316.8000	-2.4487
150.4502	-316.8000	-2.4482
150.7498	-316.8000	-2.4475
151.0498	-316.8000	-2.4450
151.3507	-316.8000	-2.4412
151.6514	-316.8000	-2.4442
151.9521	-316.8000	-2.4382
152.2523	-316.8000	-2.4371
152.5516	-316.8000	-2.4347
152.8514	-316.8000	-2.4309
153.1515	-316.8000	-2.4294
153.4516	-316.8000	-2.4301
153.7525	-316.8000	-2.4275
154.0528	-316.8000	-2.4246
154.3531	-316.8000	-2.4225
154.6539	-316.8000	-2.4210
154.9535	-316.8000	-2.4200
155.2560	-316.8000	-2.4214
155.5572	-316.8000	-2.4145
155.8573	-316.8000	-2.4140
156.1569	-316.8000	-2.4110
156.4569	-316.8000	-2.4150
156.7583	-316.8000	-2.4122
157.0595	-316.8000	-2.4070
157.3594	-316.8000	-2.4082
157.6613	-316.8000	-2.4053
157.9606	-316.8000	-2.4004
158.2625	-316.8000	-2.4079
158.5628	-316.8000	-2.4005
158.8638	-316.8000	-2.3998
159.1657	-316.8000	-2.3959
159.4679	-316.8000	-2.4009
159.7686	-316.8000	-2.3972
160.0690	-316.8000	-2.3961
160.3695	-316.8000	-2.3959
160.6720	-316.8000	-2.3907
160.9726	-316.8000	-2.3912
161.2725	-316.8000	-2.3909
161.5731	-316.8000	-2.3872
161.8751	-316.8000	-2.3876
162.1745	-316.8000	-2.3948
162.4746	-316.8000	-2.3838
162.7752	-316.8000	-2.3804
163.0752	-316.8000	-2.3796
163.3757	-316.8000	-2.3782
163.6762	-316.8000	-2.3733
163.9759	-316.8000	-2.3740
164.2764	-316.8000	-2.3711
164.5779	-316.8000	-2.3732
164.8783	-316.8000	-2.3688
165.1793	-316.8000	-2.3695
165.4785	-316.8000	-2.3682
165.7798	-316.8000	-2.3712
166.0809	-316.8000	-2.3699
166.3825	-316.8000	-2.3661
166.6854	-316.8000	-2.3688
166.9849	-316.8000	-2.3655
167.2858	-316.8000	-2.3675
167.5863	-316.8000	-2.3666
167.8866	-316.8000	-2.3606
168.1866	-316.8000	-2.3606
168.4870	-316.8000	-2.3564
168.7876	-316.8000	-2.3598
169.0877	-316.8000	-2.3562
169.3878	-316.8000	-2.3566
169.6881	-316.8000	-2.3564
169.9890	-316.8000	-2.3522
170.2893	-316.8000	-2.3532
170.5899	-316.8000	-2.3473
170.8896	-316.8000	-2.3489
171.1903	-316.8000	-2.3472
171.4902	-316.8000	-2.3472
171.7908	-316.8000	-2.3475
172.0909	-316.8000	-2.3434
172.3907	-316.8000	-2.3458
172.6908	-316.8000	-2.3426
172.9909	-316.8000	-2.3425
173.2909	-316.8000	-2.3411
173.5907	-316.8000	-2.3399
173.8933	-316.8000	-2.3355
174.1930	-316.8000	-2.3375
174.4947	-316.8000	-2.3338
174.7957	-316.8000	-2.3328
175.0958	-316.8000	-2.3306
175.3975	-316.8000	-2.3277
175.6983	-316.8000	-2.3309
175.9979	-316.8000	-2.3310
176.2991	-316.8000	-2.3256
176.5995	-316.8000	-2.3269
176.8995	-316.8000	-2.3292
177.2009	-316.8000	-2.3275
177.5009	-316.8000	-2.3224
177.8008	-316.8000	-2.3271
178.1022	-316.8000	-2.3236
178.4027	-316.8000	-2.3222
178.7037	-316.8000	-2.3214
179.0039	-316.8000	-2.3251
179.3041	-316.8000	-2.3164
179.6037	-316.8000	-2.3177
179.9061	-316.8000	-2.3201
180.2067	-316.8000	-2.3172
180.5078	-316.8000	-2.3176
180.8090	-316.8000	-2.3190
181.1093	-316.8000	-2.3170
181.4092	-316.8000	-2.3144
181.7108	-316.8000	-2.3115
182.0118	-316.8000	-2.3109
182.3118	-316.8000	-2.3090
182.6119	-316.8000	-2.3082
182.9127	-316.8000	-2.3128
183.2133	-316.8000	-2.3056
183.5129	-316.8000	-2.3112
183.8127	-316.8000	-2.3092
184.1131	-316.8000	-2.3068
184.4133	-316.8000	-2.3037
184.7140	-316.8000	-2.3067
185.0156	-316.8000	-2.3024
185.3159	-316.8000	-2.3033
185.6169	-316.8000	-2.3048
185.9187	-316.8000	-2.3014
186.2187	-316.8000	-2.3001
186.5218	-316.8000	-2.3013
186.8244	-316.8000	-2.2971
187.1253	-316.8000	-2.3009
187.4264	-316.8000	-2.2973
187.7257	-316.8000	-2.2953
188.0269	-316.8000	-2.2953
188.3296	-316.8000	-2.2951
188.6296	-316.8000	-2.2933
188.9292	-316.8000	-2.2961
189.2297	-316.8000	-2.2936
189.5289	-316.8000	-2.2952
189.8300	-316.8000	-2.2945
190.1304	-316.8000	-2.2900
190.4303	-316.8000	-2.2915
190.7331	-316.8000	-2.2907
191.0331	-316.8000	-2.2911
191.3328	-316.8000	-2.2907
191.6347	-316.8000	-2.2873
191.9339	-316.8000	-2.2885
192.2346	-316.8000	-2.2862
192.5348	-316.8000	-2.2855
192.8354	-316.8000	-2.2817
193.1353	-316.8000	-2.2854
193.4357	-316.8000	-2.2864
193.7355	-316.8000	-2.2824
194.0364	-316.8000	-2.2832
194.3358	-316.8000	-2.2842
194.6361	-316.8000	-2.2802
194.9368	-316.8000	-2.2800
195.2385	-316.8000	-2.2791
195.5380	-316.8000	-2.2778
195.8390	-316.8000	-2.2770
196.1391	-316.8000	-2.2766
196.4399	-316.8000	-2.2744
196.7403	-316.8000	-2.2757
197.0401	-316.8000	-2.2736
197.3410	-316.8000	-2.2737
197.6411	-316.8000	-2.2715
197.9436	-316.8000	-2.2665
198.2446	-316.8000	-2.2705
198.5458	-316.8000	-2.2689
198.8478	-316.8000	-2.2703
199.1479	-316.8000	-2.2712
199.4484	-316.8000	-2.2721
199.7487	-316.8000	-2.2694
200.0479	-316.8000	-2.2649
200.3479	-316.8000	-2.2660
200.6480	-316.8000	-2.2640
200.9488	-316.8000	-2.2680
201.2511	-316.8000	-2.2642
201.5511	-316.8000	-2.2667
201.8510	-316.8000	-2.2663
202.1511	-316.8000	-2.2648
202.4524	-316.8000	-2.2622
202.7535	-316.8000	-2.2576
203.0536	-316.8000	-2.2628
203.3535	-316.8000	-2.2649
203.6548	-316.8000	-2.2558
203.9542	-316.8000	-2.2610
204.2548	-316.8000	-2.2565
204.5544	-316.8000	-2.2619
204.8562	-316.8000	-2.2577
205.1571	-316.8000	-2.2596
205.4586	-316.8000	-2.2555
205.7590	-316.8000	-2.2576
206.0618	-316.8000	-2.2572
206.3628	-316.8000	-2.2544
206.6636	-316.8000	-2.2553
206.9636	-316.8000	-2.2549
207.2640	-316.8000	-2.2559
207.5654	-316.8000	-2.2554
207.8663	-316.8000	-2.2563
208.1672	-316.8000	-2.2509
208.4689	-316.8000	-2.2515
208.7699	-316.8000	-2.2524
209.0701	-316.8000	-2.2528
209.3710	-316.8000	-2.2529
209.6711	-316.8000	-2.2494
209.9712	-316.8000	-2.2492
210.2713	-316.8000	-2.2484
210.5717	-316.8000	-2.2509
210.8711	-316.8000	-2.2425
211.1730	-316.8000	-2.2461
211.4736	-316.8000	-2.2469
211.7735	-316.8000	-2.2431
212.0753	-316.8000	-2.2430
212.3750	-316.8000	-2.2411
212.6750	-316.8000	-2.2425
212.9769	-316.8000	-2.2440
213.2760	-316.8000	-2.2400
213.5780	-316.8000	-2.2374
213.8781	-316.8000	-2.2438
214.1785	-316.8000	-2.2406
214.4791	-316.8000	-2.2425
214.7791	-316.8000	-2.2407
215.0790	-316.8000	-2.2400
215.3799	-316.8000	-2.2388
215.6803	-316.8000	-2.2403
215.9804	-316.8000	-2.2394
216.2813	-316.8000	-2.2364
216.5813	-316.8000	-2.2361
216.8813	-316.8000	-2.2361
217.1813	-316.8000	-2.2344
217.4813	-316.8000	-2.2366
217.7844	-316.8000	-2.2338
218.0842	-316.8000	-2.2329
218.3849	-316.8000	-2.2330
218.6860	-316.8000	-2.2332
218.9852	-316.8000	-2.2307
219.2872	-316.8000	-2.2301
219.5871	-316.8000	-2.2313
219.8891	-316.8000	-2.2287
220.1901	-316.8000	-2.2299
220.4902	-316.8000	-2.2250
220.7904	-316.8000	-2.2295
221.0923	-316.8000	-2.2333
221.3934	-316.8000	-2.2298
221.6942	-316.8000	-2.2251
221.9960	-316.8000	-2.2270
222.2961	-316.8000	-2.2262
222.5962	-316.8000	-2.2231
222.8967	-316.8000	-2.2239
223.1977	-316.8000	-2.2261
223.4990	-316.8000	-2.2247
223.7994	-316.8000	-2.2235
224.0999	-316.8000	-2.2226
224.3996	-316.8000	-2.2221
224.7002	-316.8000	-2.2208
225.0013	-316.8000	-2.2196
225.3027	-316.8000	-2.2204
225.6034	-316.8000	-2.2204
225.9065	-316.8000	-2.2210
226.2083	-316.8000	-2.2201
226.5084	-316.8000	-2.2181
226.8090	-316.8000	-2.2204
227.1092	-316.8000	-2.2195
227.4105	-316.8000	-2.2166
227.7103	-316.8000	-2.2178
228.0113	-316.8000	-2.2171
228.3113	-316.8000	-2.2177
228.6115	-316.8000	-2.2171
228.9119	-316.8000	-2.2135
229.2122	-316.8000	-2.2159
229.5133	-316.8000	-2.2177
229.8134	-316.8000	-2.2165
230.1139	-316.8000	-2.2136
230.4137	-316.8000	-2.2108
230.7135	-316.8000	-2.2142
231.0133	-316.8000	-2.2104
231.3138	-316.8000	-2.2130
231.6132	-316.8000	-2.2104
231.9134	-316.8000	-2.2156
232.2162	-316.8000	-2.2129
232.5164	-316.8000	-2.2071
232.8178	-316.8000	-2.2091
233.1187	-316.8000	-2.2133
233.4184	-316.8000	-2.2075
233.7195	-316.8000	-2.2094
234.0204	-316.8000	-2.2085
234.3207	-316.8000	-2.2059
234.6225	-316.8000	-2.2087
234.9243	-316.8000	-2.2092
235.2247	-316.8000	-2.2077
235.5248	-316.8000	-2.2056
235.8252	-316.8000	-2.2073
236.1265	-316.8000	-2.2065
236.4263	-316.8000	-2.2088
236.7272	-316.8000	-2.2033
237.0274	-316.8000	-2.2056
237.3276	-316.8000	-2.2041
237.6281	-316.8000	-2.2032
237.9286	-316.8000	-2.2039
238.2286	-316.8000	-2.2043
238.5288	-316.8000	-2.2041
238.8285	-316.8000	-2.1998
239.1305	-316.8000	-2.2036
239.4315	-316.8000	-2.2022
239.7332	-316.8000	-2.2019
240.0323	-316.8000	-2.2003
240.3360	-316.8000	-2.2005
240.6353	-316.8000	-2.2013
240.9358	-316.8000	-2.2036
241.2357	-316.8000	-2.2022
241.5355	-316.8000	-2.2016
241.8364	-316.8000	-2.2033
242.1368	-316.8000	-2.1979
242.4374	-316.8000	-2.1995
242.7383	-316.8000	-2.1982
243.0392	-316.8000	-2.1960
243.3389	-316.8000	-2.1967
243.6393	-316.8000	-2.1944
243.9386	-316.8000	-2.1967
244.2387	-316.8000	-2.1953
244.5406	-316.8000	-2.1948
244.8410	-316.8000	-2.1933
245.1423	-316.8000	-2.1933
245.4416	-316.8000	-2.1922
245.7419	-316.8000	-2.1917
246.0414	-316.8000	-2.1907
246.3424	-316.8000	-2.1905
246.6425	-316.8000	-2.1910
246.9429	-316.8000	-2.1897
247.2443	-316.8000	-2.1904
247.5436	-316.8000	-2.1901
247.8463	-316.8000	-2.1901
248.1463	-316.8000	-2.1896
248.4479	-316.8000	-2.1920
248.7493	-316.8000	-2.1910
249.0492	-316.8000	-2.1900
249.3493	-316.8000	-2.1878
249.6493	-316.8000	-2.1870
249.9491	-316.8000	-2.1848
250.2501	-316.8000	-2.1840
250.5495	-316.8000	-2.1866
250.8497	-316.8000	-2.1868
251.1504	-316.8000	-2.1878
251.4512	-316.8000	-2.1876
251.7516	-316.8000	-2.1850
252.0544	-316.8000	-2.1808
252.3553	-316.8000	-2.1809
252.6545	-316.8000	-2.1837
252.9544	-316.8000	-2.1788
253.2554	-316.8000	-2.1825
253.5559	-316.8000	-2.1804
253.8565	-316.8000	-2.1784
254.1575	-316.8000	-2.1798
254.4586	-316.8000	-2.1788
254.7595	-316.8000	-2.1808
255.0615	-316.8000	-2.1811
255.3617	-316.8000	-2.1803
255.6626	-316.8000	-2.1802
255.9631	-316.8000	-2.1783
256.2632	-316.8000	-2.1779
256.5641	-316.8000	-2.1806
256.8660	-316.8000	-2.1774
257.1671	-316.8000	-2.1809
257.4687	-316.8000	-2.1794
257.7686	-316.8000	-2.1828
258.0686	-316.8000	-2.1797
258.3695	-316.8000	-2.1821
258.6691	-316.8000	-2.1778
258.9688	-316.8000	-2.1809
259.2691	-316.8000	-2.1777
259.5705	-316.8000	-2.1738
259.8717	-316.8000	-2.1778
260.1754	-316.8000	-2.1750
260.4755	-316.8000	-2.1766
260.7772	-316.8000	-2.1763
261.0767	-316.8000	-2.1724
261.3767	-316.8000	-2.1733
261.6766	-316.8000	-2.1737
261.9776	-316.8000	-2.1756
262.2785	-316.8000	-2.1715
262.5795	-316.8000	-2.1711
262.8813	-316.8000	-2.1726
263.1820	-316.8000	-2.1723
263.4817	-316.8000	-2.1734
263.7818	-316.8000	-2.1722
264.0824	-316.8000	-2.1717
264.3839	-316.8000	-2.1709
264.6841	-316.8000	-2.1678
264.9837	-316.8000	-2.1656
265.2840	-316.8000	-2.1675
265.5848	-316.8000	-2.1666
265.8846	-316.8000	-2.1657
266.1859	-316.8000	-2.1689
266.4868	-316.8000	-2.1672
266.7870	-316.8000	-2.1672
267.0885	-316.8000	-2.1666
267.3888	-316.8000	-2.1665
267.6891	-316.8000	-2.1669
267.9906	-316.8000	-2.1664
268.2917	-316.8000	-2.1653
268.5937	-316.8000	-2.1638
268.8955	-316.8000	-2.1644
269.1946	-316.8000	-2.1626
269.4952	-316.8000	-2.1649
269.7946	-316.8000	-2.1628
270.0959	-316.8000	-2.1628
270.3957	-316.8000	-2.1621
270.6967	-316.8000	-2.1664
270.9966	-316.8000	-2.1637
271.2971	-316.8000	-2.1638
271.5985	-316.8000	-2.1626
271.9001	-316.8000	-2.1602
272.1998	-316.8000	-2.1609
272.5010	-316.8000	-2.1630
272.8020	-316.8000	-2.1608
273.1017	-316.8000	-2.1604
273.4017	-316.8000	-2.1574
273.7020	-316.8000	-2.1580
274.0018	-316.8000	-2.1591
274.3043	-316.8000	-2.1583
274.6037	-316.8000	-2.1590
274.9041	-316.8000	-2.1587
275.2044	-316.8000	-2.1598
275.5043	-316.8000	-2.1619
275.8042	-316.8000	-2.1592
276.1040	-316.8000	-2.1578
276.4044	-316.8000	-2.1595
276.7038	-316.8000	-2.1586
277.0043	-316.8000	-2.1547
277.3058	-316.8000	-2.1565
277.6074	-316.8000	-2.1552
277.9071	-316.8000	-2.1568
278.2078	-316.8000	-2.1571
278.5093	-316.8000	-2.1548
278.8092	-316.8000	-2.1538
279.1101	-316.8000	-2.1565
279.4101	-316.8000	-2.1547
279.7097	-316.8000	-2.1543
280.0098	-316.8000	-2.1527
280.3119	-316.8000	-2.1531
280.6155	-316.8000	-2.1546
280.9166	-316.8000	-2.1530
281.2168	-316.8000	-2.1521
281.5169	-316.8000	-2.1518
281.8170	-316.8000	-2.1522
282.1184	-316.8000	-2.1561
282.4193	-316.8000	-2.1521
282.7214	-316.8000	-2.1510
283.0218	-316.8000	-2.1517
283.3220	-316.8000	-2.1478
283.6220	-316.8000	-2.1530
283.9221	-316.8000	-2.1513
284.2220	-316.8000	-2.1490
284.5220	-316.8000	-2.1467
284.8229	-316.8000	-2.1468
285.1239	-316.8000	-2.1501
285.4244	-316.8000	-2.1501
285.7257	-316.8000	-2.1470
286.0274	-316.8000	-2.1465
286.3274	-316.8000	-2.1474
286.6287	-316.8000	-2.1469
286.9297	-316.8000	-2.1484
287.2299	-316.8000	-2.1495
287.5326	-316.8000	-2.1469
287.8319	-316.8000	-2.1455
288.1335	-316.8000	-2.1455
288.4352	-316.8000	-2.1453
288.7377	-316.8000	-2.1470
289.0358	-316.8000	-2.1463
289.3376	-316.8000	-2.1469
289.6371	-316.8000	-2.1473
289.9374	-316.8000	-2.1469
290.2381	-316.8000	-2.1469
290.5400	-316.8000	-2.1448
290.8411	-316.8000	-2.1455
291.1415	-316.8000	-2.1444
291.4410	-316.8000	-2.1435
291.7419	-316.8000	-2.1458
292.0421	-316.8000	-2.1465
292.3438	-316.8000	-2.1431
292.6440	-316.8000	-2.1449
292.9458	-316.8000	-2.1435
293.2449	-316.8000	-2.1419
293.5464	-316.8000	-2.1421
293.8478	-316.8000	-2.1409
294.1489	-316.8000	-2.1392
294.4505	-316.8000	-2.1401
294.7520	-316.8000	-2.1390
295.0529	-316.8000	-2.1408
295.3533	-316.8000	-2.1431
295.6545	-316.8000	-2.1420
295.9558	-316.8000	-2.1418
296.2559	-316.8000	-2.1378
296.5549	-316.8000	-2.1397
296.8558	-316.8000	-2.1388
297.1566	-316.8000	-2.1382
297.4564	-316.8000	-2.1365
297.7559	-316.8000	-2.1386
298.0566	-316.8000	-2.1382
298.3575	-316.8000	-2.1382
298.6578	-316.8000	-2.1358
298.9580	-316.8000	-2.1339
299.2599	-316.8000	-2.1345
299.5610	-316.8000	-2.1363
299.8636	-316.8000	-2.1358
300.1651	-316.8000	-2.1344
300.4662	-316.8000	-2.1362
300.7669	-316.8000	-2.1335
301.0673	-316.8000	-2.1358
301.3689	-316.8000	-2.1352
301.6700	-316.8000	-2.1326
301.9730	-316.8000	-2.1373
302.2744	-316.8000	-2.1337
302.5741	-316.8000	-2.1329
302.8740	-316.8000	-2.1312
303.1745	-316.8000	-2.1316
303.4752	-316.8000	-2.1327
303.7760	-316.8000	-2.1310
304.0760	-316.8000	-2.1330
304.3775	-316.8000	-2.1296
304.6781	-316.8000	-2.1319
304.9790	-316.8000	-2.1322
305.2799	-316.8000	-2.1328
305.5797	-316.8000	-2.1308
305.8799	-316.8000	-2.1285
306.1795	-316.8000	-2.1327
306.4809	-316.8000	-2.1290
306.7814	-316.8000	-2.1300
307.0823	-316.8000	-2.1288
307.3823	-316.8000	-2.1301
307.6822	-316.8000	-2.1293
307.9822	-316.8000	-2.1290
308.2831	-316.8000	-2.1310
308.5841	-316.8000	-2.1297
308.8860	-316.8000	-2.1284
309.1871	-316.8000	-2.1284
309.4894	-316.8000	-2.1283
309.7893	-316.8000	-2.1282
310.0911	-316.8000	-2.1292
310.3922	-316.8000	-2.1294
310.6944	-316.8000	-2.1288
310.9971	-316.8000	-2.1282
311.2991	-316.8000	-2.1272
311.6002	-316.8000	-2.1253
311.9001	-316.8000	-2.1243
312.2007	-316.8000	-2.1273
312.5018	-316.8000	-2.1254
312.8016	-316.8000	-2.1251
313.1022	-316.8000	-2.1226
313.4022	-316.8000	-2.1242
313.7036	-316.8000	-2.1236
314.0060	-316.8000	-2.1224
314.3081	-316.8000	-2.1225
314.6088	-316.8000	-2.1247
314.9095	-316.8000	-2.1219
315.2108	-316.8000	-2.1197
315.5106	-316.8000	-2.1234
315.8111	-316.8000	-2.1221
316.1111	-316.8000	-2.1202
316.4117	-316.8000	-2.1206
316.7122	-316.8000	-2.1211
317.0131	-316.8000	-2.1194
317.3141	-316.8000	-2.1233
317.6141	-316.8000	-2.1226
317.9141	-316.8000	-2.1217
318.2147	-316.8000	-2.1193
318.5152	-316.8000	-2.1198
318.8161	-316.8000	-2.1188
319.1165	-316.8000	-2.1173
319.4180	-316.8000	-2.1159
319.7183	-316.8000	-2.1164
320.0196	-316.8000	-2.1156
320.3206	-316.8000	-2.1177
320.6202	-316.8000	-2.1167
320.9215	-316.8000	-2.1176
321.2235	-316.8000	-2.1168
321.5247	-316.8000	-2.1150
321.8248	-316.8000	-2.1169
322.1263	-316.8000	-2.1170
322.4273	-316.8000	-2.1171
322.7273	-316.8000	-2.1162
323.0288	-316.8000	-2.1167
323.3292	-316.8000	-2.1162
323.6301	-316.8000	-2.1152
323.9316	-316.8000	-2.1167
324.2324	-316.8000	-2.1143
324.5330	-316.8000	-2.1183
324.8334	-316.8000	-2.1158
325.1333	-316.8000	-2.1154
325.4342	-316.8000	-2.1146
325.7349	-316.8000	-2.1158
326.0346	-316.8000	-2.1149
326.3352	-316.8000	-2.1132
326.6372	-316.8000	-2.1138
326.9365	-316.8000	-2.1162
327.2377	-316.8000	-2.1149
327.5377	-316.8000	-2.1114
327.8378	-316.8000	-2.1148
328.1381	-316.8000	-2.1135
328.4388	-316.8000	-2.1159
328.7402	-316.8000	-2.1147
329.0397	-316.8000	-2.1149
329.3394	-316.8000	-2.1107
329.6401	-316.8000	-2.1151
329.9420	-316.8000	-2.1163
330.2432	-316.8000	-2.1157
330.5433	-316.8000	-2.1144
330.8462	-316.8000	-2.1094
331.1471	-316.8000	-2.1143
331.4463	-316.8000	-2.1119
331.7493	-316.8000	-2.1124
332.0503	-316.8000	-2.1101
332.3511	-316.8000	-2.1086
332.6538	-316.8000	-2.1101
332.9553	-316.8000	-2.1111
333.2546	-316.8000	-2.1086
333.5566	-316.8000	-2.1101
333.8589	-316.8000	-2.1095
334.1589	-316.8000	-2.1118
334.4594	-316.8000	-2.1097
334.7601	-316.8000	-2.1059
335.0603	-316.8000	-2.1074
335.3598	-316.8000	-2.1088
335.6615	-316.8000	-2.1080
335.9617	-316.8000	-2.1080
336.2631	-316.8000	-2.1085
336.5644	-316.8000	-2.1086
336.8647	-316.8000	-2.1072
337.1654	-316.8000	-2.1097
337.4673	-316.8000	-2.1095
337.7681	-316.8000	-2.1068
338.0683	-316.8000	-2.1103
338.3689	-316.8000	-2.1118
338.6689	-316.8000	-2.1068
338.9691	-316.8000	-2.1083
339.2702	-316.8000	-2.1077
339.5709	-316.8000	-2.1067
339.8711	-316.8000	-2.1033
340.1714	-316.8000	-2.1058
340.4724	-316.8000	-2.1054
340.7725	-316.8000	-2.1053
341.0753	-316.8000	-2.1047
341.3734	-316.8000	-2.1058
341.6753	-316.8000	-2.1057
341.9745	-316.8000	-2.1056
342.2746	-316.8000	-2.1039
342.5763	-316.8000	-2.1057
342.8770	-316.8000	-2.1036
343.1770	-316.8000	-2.1023
343.4776	-316.8000	-2.1044
343.7779	-316.8000	-2.1040
344.0778	-316.8000	-2.1025
344.3778	-316.8000	-2.1044
344.6783	-316.8000	-2.1007
344.9794	-316.8000	-2.1008
345.2788	-316.8000	-2.1005
345.5786	-316.8000	-2.1052
345.8796	-316.8000	-2.1011
346.1797	-316.8000	-2.0997
346.3804	-316.8000	-2.1002