File: Tinius-Olsen_Levitation_force/Measurements/20231204_1640GDBCOs2_sl6_1.txt
4/12/2023 4:40:20 pm
Time(s)	Displacement(mm)	Force(N)
0.0000	-258.7030	1.1698
0.2636	-258.2070	1.1851
0.4644	-258.2070	1.1798
0.6639	-258.2070	1.1838
0.8641	-258.2080	1.1802
1.0649	-258.2080	1.1829
1.2662	-258.2080	1.1803
1.4664	-258.2080	1.1784
1.6661	-258.2080	1.1820
1.8671	-258.2080	1.1798
2.0670	-258.2080	1.1781
2.2680	-258.2080	1.1747
2.4677	-258.2080	1.1812
2.6685	-258.2080	1.1805
2.8692	-258.2080	1.1796
3.0691	-258.2080	1.1822
3.2688	-258.2080	1.1779
3.4693	-258.2080	1.1833
3.6693	-258.2080	1.1825
3.8694	-258.2080	1.1846
4.0686	-258.2080	1.1819
4.2700	-258.2080	1.1859
4.4708	-258.2080	1.1847
4.6710	-258.2080	1.1832
4.8722	-258.2080	1.1847
5.0722	-258.2080	1.1810
5.2738	-258.2080	1.1838
5.4750	-258.2080	1.1807
5.6762	-258.2080	1.1840
5.8769	-258.2080	1.1845
6.0984	-258.0010	1.1775
6.2976	-258.0000	1.1876
6.5004	-258.0000	1.1852
6.7003	-258.0000	1.1848
6.9001	-258.0000	1.1856
7.1011	-258.0000	1.1853
7.3009	-258.0000	1.1853
7.5015	-258.0000	1.1846
7.7032	-258.0000	1.1888
7.9031	-258.0000	1.1865
8.1031	-258.0000	1.1894
8.3044	-258.0000	1.1871
8.5039	-258.0000	1.1874
8.7038	-258.0000	1.1844
8.9051	-258.0000	1.1835
9.1063	-258.0000	1.1861
9.3061	-258.0000	1.1844
9.5065	-258.0000	1.1863
9.7065	-258.0000	1.1883
9.9080	-258.0000	1.1881
10.1085	-258.0000	1.1879
10.3086	-258.0000	1.1859
10.5101	-258.0000	1.1839
10.7111	-258.0000	1.1849
10.9108	-258.0000	1.1879
11.1108	-258.0000	1.1841
11.3108	-258.0000	1.1887
11.5112	-258.0000	1.1864
11.7109	-258.0000	1.1873
11.9131	-258.0000	1.1836
12.1138	-258.0000	1.1835
12.3147	-258.0000	1.1883
12.5161	-258.0000	1.1864
12.7159	-258.0000	1.1849
12.9160	-258.0000	1.1877
13.1158	-258.0000	1.1896
13.3159	-258.0000	1.1915
13.5163	-258.0000	1.1830
13.7357	-258.5620	1.1731
13.9372	-259.8930	1.1680
14.1368	-260.0000	1.1526
14.3378	-260.0000	1.1540
14.5385	-260.0000	1.1550
14.7376	-260.0000	1.1560
14.9387	-260.0000	1.1524
15.1388	-260.0000	1.1592
15.3415	-260.0000	1.1562
15.5420	-260.0000	1.1567
15.7431	-260.0000	1.1539
15.9441	-260.0000	1.1531
16.1454	-260.0000	1.1527
16.3462	-260.0000	1.1544
16.5472	-260.0000	1.1568
16.7475	-260.0000	1.1547
16.9472	-260.0000	1.1573
17.1481	-260.0000	1.1554
17.3482	-260.0000	1.1531
17.5477	-260.0000	1.1542
17.7495	-260.0000	1.1576
17.9496	-260.0000	1.1583
18.1512	-260.0000	1.1556
18.3513	-260.0000	1.1577
18.5509	-260.0000	1.1586
18.7509	-260.0000	1.1547
18.9506	-260.0000	1.1613
19.1522	-260.0000	1.1548
19.3530	-260.0000	1.1576
19.5530	-260.0000	1.1585
19.7532	-260.0000	1.1585
19.9531	-260.0000	1.1565
20.1530	-260.0000	1.1574
20.3543	-260.0000	1.1616
20.5545	-260.0000	1.1566
20.7537	-260.0000	1.1539
20.9546	-260.0000	1.1575
21.1560	-260.0000	1.1578
21.3575	-260.0000	1.1596
21.5580	-260.0000	1.1584
21.7591	-260.0000	1.1586
21.9601	-260.0000	1.1578
22.1608	-260.0000	1.1573
22.3623	-260.0000	1.1576
22.5622	-260.0000	1.1604
22.7641	-260.0000	1.1612
22.9648	-260.0000	1.1564
23.1661	-260.0000	1.1576
23.3656	-260.0000	1.1562
23.5673	-260.0000	1.1586
23.7681	-260.0000	1.1577
23.9687	-260.0000	1.1569
24.1696	-260.0000	1.1592
24.3687	-260.0000	1.1574
24.5705	-260.0000	1.1593
24.7707	-260.0000	1.1583
24.9719	-260.0000	1.1612
25.1727	-260.0000	1.1554
25.3728	-260.0000	1.1548
25.5726	-260.0000	1.1548
25.7757	-260.0000	1.1585
25.9778	-260.0000	1.1642
26.1780	-260.0000	1.1591
26.3797	-260.0000	1.1560
26.5802	-260.0000	1.1570
26.7810	-260.0000	1.1570
26.9817	-260.1380	1.1549
27.2030	-261.2020	1.1493
27.4029	-262.5350	1.1302
27.6032	-263.8680	1.1130
27.8043	-265.2380	1.0953
28.0042	-266.5710	1.0808
28.2057	-267.9040	1.0824
28.4074	-269.2370	1.0765
28.6087	-270.6040	1.0716
28.8089	-271.9370	1.0753
29.0103	-273.2710	1.0671
29.2097	-274.6030	1.0679
29.4106	-275.9360	1.0603
29.6126	-277.2690	1.0550
29.8122	-278.6020	1.0511
30.0134	-279.9350	1.0468
30.2127	-281.3030	1.0434
30.4149	-282.6350	1.0341
30.6167	-283.9690	1.0239
30.8167	-285.3010	1.0134
31.0188	-286.6680	1.0039
31.2189	-288.0010	0.9904
31.4196	-289.3350	0.9724
31.6190	-290.6680	0.9508
31.8193	-292.0010	0.9289
32.0206	-293.3330	0.8990
32.2209	-294.6670	0.8621
32.4213	-296.0000	0.8107
32.6231	-297.3320	0.7545
32.8232	-298.6660	0.6780
33.0231	-300.0010	0.5902
33.2243	-301.3710	0.4768
33.4241	-302.7040	0.3267
33.6243	-304.0360	0.1305
33.8244	-305.3690	-0.1173
34.0258	-306.7030	-0.4382
34.2263	-308.0360	-0.8633
34.4261	-309.3690	-1.4177
34.6261	-310.7020	-2.1185
34.8276	-312.0350	-3.0055
35.0281	-313.3680	-4.1100
35.2279	-314.7350	-5.4326
35.4284	-316.0340	-6.9452
35.6287	-316.8010	-8.6907
35.8282	-316.8010	-8.6020
36.0287	-316.8010	-8.3469
36.2285	-316.8000	-8.1979
36.4285	-316.8000	-8.0954
36.6287	-316.8000	-8.0201
36.8278	-316.8000	-7.9545
37.0292	-316.8000	-7.9039
37.2293	-316.8000	-7.8548
37.4303	-316.8000	-7.8189
37.6307	-316.8000	-7.7823
37.8317	-316.8000	-7.7525
38.0311	-316.8000	-7.7232
38.2331	-316.8000	-7.6966
38.4325	-316.8000	-7.6724
38.6337	-316.8000	-7.6529
38.8333	-316.8000	-7.6288
39.0329	-316.8000	-7.6117
39.2333	-316.8000	-7.5943
39.4336	-316.8000	-7.5774
39.6342	-316.8000	-7.5605
39.8349	-316.8000	-7.5448
40.0353	-316.8000	-7.5298
40.2358	-316.8000	-7.5207
40.4373	-316.8000	-7.5064
40.6372	-316.8000	-7.4911
40.8369	-316.8000	-7.4822
41.0379	-316.8000	-7.4656
41.2388	-316.8000	-7.4569
41.4406	-316.8000	-7.4437
41.6399	-316.8000	-7.4381
41.8399	-316.8000	-7.4238
42.0417	-316.8000	-7.4183
42.2412	-316.8000	-7.4053
42.4424	-316.8000	-7.3984
42.6433	-316.8000	-7.3894
42.8433	-316.8000	-7.3828
43.0434	-316.8000	-7.3709
43.2432	-316.8000	-7.3640
43.4435	-316.8000	-7.3552
43.6436	-316.8000	-7.3463
43.8432	-316.8000	-7.3408
44.0434	-316.8000	-7.3341
44.2430	-316.8000	-7.3247
44.4434	-316.8000	-7.3201
44.6445	-316.8000	-7.3104
44.8449	-316.8000	-7.3067
45.0451	-316.8000	-7.3008
45.2457	-316.8000	-7.2928
45.4452	-316.8000	-7.2844
45.6455	-316.8000	-7.2785
45.8454	-316.8000	-7.2727
46.0452	-316.8000	-7.2652
46.2452	-316.8000	-7.2645
46.4460	-316.8000	-7.2595
46.6465	-316.8000	-7.2548
46.8466	-316.8000	-7.2491
47.0469	-316.8000	-7.2470
47.2474	-316.8000	-7.2405
47.4479	-316.8000	-7.2342
47.6485	-316.8000	-7.2285
47.8480	-316.8000	-7.2194
48.0490	-316.8000	-7.2195
48.2493	-316.8000	-7.2129
48.4501	-316.8000	-7.2083
48.6516	-316.8000	-7.2033
48.8524	-316.8000	-7.2003
49.0522	-316.8000	-7.1916
49.2532	-316.8000	-7.1897
49.4560	-316.8000	-7.1857
49.6574	-316.8000	-7.1826
49.8584	-316.8000	-7.1808
50.0597	-316.8000	-7.1771
50.2589	-316.8000	-7.1695
50.4598	-316.8000	-7.1660
50.6596	-316.8000	-7.1624
50.8594	-316.8000	-7.1600
51.0596	-316.8000	-7.1544
51.2599	-316.8000	-7.1529
51.4610	-316.8000	-7.1488
51.6620	-316.8000	-7.1445
51.8633	-316.8000	-7.1396
52.0636	-316.8000	-7.1347
52.2643	-316.8000	-7.1329
52.4653	-316.8000	-7.1306
52.6660	-316.8000	-7.1219
52.8676	-316.8000	-7.1248
53.0674	-316.8000	-7.1186
53.2670	-316.8000	-7.1176
53.4671	-316.8000	-7.1134
53.6674	-316.8000	-7.1090
53.8670	-316.8000	-7.1084
54.0673	-316.8000	-7.1014
54.2690	-316.8000	-7.0995
54.4693	-316.8000	-7.0937
54.6699	-316.8000	-7.0923
54.8713	-316.8000	-7.0895
55.0710	-316.8000	-7.0861
55.2713	-316.8000	-7.0832
55.4712	-316.8000	-7.0814
55.6712	-316.8000	-7.0778
55.8714	-316.8000	-7.0762
56.0713	-316.8000	-7.0745
56.2709	-316.8000	-7.0705
56.4714	-316.8000	-7.0716
56.6711	-316.8000	-7.0655
56.8725	-316.8000	-7.0647
57.0720	-316.8000	-7.0609
57.2732	-316.8000	-7.0565
57.4735	-316.8000	-7.0551
57.6756	-316.8000	-7.0510
57.8751	-316.8000	-7.0470
58.0767	-316.8000	-7.0494
58.2778	-316.8000	-7.0450
58.4785	-316.8000	-7.0423
58.6784	-316.8000	-7.0429
58.8798	-316.8000	-7.0400
59.0794	-316.8000	-7.0359
59.2800	-316.8000	-7.0355
59.4813	-316.8000	-7.0320
59.6827	-316.8000	-7.0304
59.8836	-316.8000	-7.0279
60.0831	-316.8000	-7.0250
60.2835	-316.8000	-7.0201
60.4831	-316.8000	-7.0201
60.6852	-316.8000	-7.0188
60.8865	-316.8000	-7.0150
61.0871	-316.8000	-7.0135
61.2870	-316.8000	-7.0148
61.4877	-316.8000	-7.0123
61.6876	-316.8000	-7.0085
61.8889	-316.8000	-7.0046
62.0883	-316.8000	-7.0026
62.2882	-316.8000	-6.9989
62.4889	-316.8000	-6.9980
62.6890	-316.8000	-6.9962
62.8901	-316.8000	-6.9930
63.0908	-316.8000	-6.9966
63.2913	-316.8000	-6.9914
63.4927	-316.8000	-6.9879
63.6937	-316.8000	-6.9840
63.8945	-316.8000	-6.9828
64.0944	-316.8000	-6.9857
64.2944	-316.8000	-6.9781
64.4950	-316.8000	-6.9785
64.6942	-316.8000	-6.9774
64.8961	-316.8000	-6.9764
65.0960	-316.8000	-6.9734
65.2975	-316.8000	-6.9710
65.4999	-316.8000	-6.9699
65.6994	-316.8000	-6.9699
65.8996	-316.8000	-6.9661
66.1016	-316.8000	-6.9674
66.3014	-316.8000	-6.9602
66.5026	-316.8000	-6.9572
66.7046	-316.8000	-6.9548
66.9046	-316.8000	-6.9575
67.1041	-316.8000	-6.9545
67.3045	-316.8000	-6.9485
67.5056	-316.8000	-6.9477
67.7066	-316.8000	-6.9462
67.9077	-316.8000	-6.9451
68.1090	-316.8000	-6.9449
68.3092	-316.8000	-6.9424
68.5110	-316.8000	-6.9418
68.7116	-316.8000	-6.9401
68.9127	-316.8000	-6.9390
69.1126	-316.8000	-6.9363
69.3136	-316.8000	-6.9358
69.5134	-316.8000	-6.9351
69.7136	-316.8000	-6.9317
69.9138	-316.8000	-6.9317
70.1134	-316.8000	-6.9270
70.3138	-316.8000	-6.9293
70.5138	-316.8000	-6.9288
70.7138	-316.8000	-6.9239
70.9136	-316.8000	-6.9253
71.1135	-316.8000	-6.9241
71.3136	-316.8000	-6.9183
71.5133	-316.8000	-6.9187
71.7136	-316.8000	-6.9167
71.9136	-316.8000	-6.9170
72.1136	-316.8000	-6.9139
72.3148	-316.8000	-6.9172
72.5146	-316.8000	-6.9151
72.7166	-316.8000	-6.9115
72.9169	-316.8000	-6.9079
73.1180	-316.8000	-6.9066
73.3187	-316.8000	-6.9054
73.5200	-316.8000	-6.9043
73.7205	-316.8000	-6.9020
73.9230	-316.8000	-6.9056
74.1235	-316.8000	-6.8998
74.3234	-316.8000	-6.8990
74.5248	-316.8000	-6.8982
74.7253	-316.8000	-6.8964
74.9257	-316.8000	-6.8911
75.1263	-316.8000	-6.8935
75.3269	-316.8000	-6.8950
75.5278	-316.8000	-6.8895
75.7283	-316.8000	-6.8864
75.9300	-316.8000	-6.8911
76.1310	-316.8000	-6.8887
76.3319	-316.8000	-6.8827
76.5312	-316.8000	-6.8814
76.7313	-316.8000	-6.8848
76.9312	-316.8000	-6.8819
77.1315	-316.8000	-6.8777
77.3312	-316.8000	-6.8790
77.5312	-316.8000	-6.8772
77.7317	-316.8000	-6.8726
77.9312	-316.8000	-6.8766
78.1314	-316.8000	-6.8721
78.3314	-316.8000	-6.8711
78.5314	-316.8000	-6.8711
78.7312	-316.8000	-6.8696
78.9327	-316.8000	-6.8674
79.1340	-316.8000	-6.8680
79.3335	-316.8000	-6.8636
79.5352	-316.8000	-6.8647
79.7355	-316.8000	-6.8648
79.9358	-316.8000	-6.8605
80.1358	-316.8000	-6.8589
80.3358	-316.8000	-6.8608
80.5362	-316.8000	-6.8576
80.7385	-316.8000	-6.8574
80.9391	-316.8000	-6.8566
81.1406	-316.8000	-6.8537
81.3417	-316.8000	-6.8535
81.5417	-316.8000	-6.8511
81.7435	-316.8000	-6.8518
81.9435	-316.8000	-6.8482
82.1433	-316.8000	-6.8486
82.3450	-316.8000	-6.8488
82.5466	-316.8000	-6.8448
82.7477	-316.8000	-6.8449
82.9473	-316.8000	-6.8448
83.1480	-316.8000	-6.8404
83.3477	-316.8000	-6.8410
83.5482	-316.8000	-6.8407
83.7482	-316.8000	-6.8376
83.9492	-316.8000	-6.8389
84.1509	-316.8000	-6.8383
84.3504	-316.8000	-6.8345
84.5510	-316.8000	-6.8318
84.7509	-316.8000	-6.8351
84.9513	-316.8000	-6.8335
85.1522	-316.8000	-6.8317
85.3530	-316.8000	-6.8328
85.5534	-316.8000	-6.8310
85.7536	-316.8000	-6.8285
85.9537	-316.8000	-6.8295
86.1537	-316.8000	-6.8293
86.3535	-316.8000	-6.8265
86.5539	-316.8000	-6.8261
86.7540	-316.8000	-6.8275
86.9542	-316.8000	-6.8245
87.1548	-316.8000	-6.8267
87.3543	-316.8000	-6.8240
87.5550	-316.8000	-6.8235
87.7548	-316.8000	-6.8227
87.9557	-316.8000	-6.8211
88.1559	-316.8000	-6.8141
88.3554	-316.8000	-6.8176
88.5557	-316.8000	-6.8163
88.7557	-316.8000	-6.8144
88.9566	-316.8000	-6.8114
89.1568	-316.8000	-6.8089
89.3569	-316.8000	-6.8078
89.5572	-316.8000	-6.8102
89.7584	-316.8000	-6.8061
89.9616	-316.8000	-6.8075
90.1615	-316.8000	-6.8072
90.3637	-316.8000	-6.8059
90.5651	-316.8000	-6.8043
90.7651	-316.8000	-6.8044
90.9643	-316.8000	-6.8038
91.1646	-316.8000	-6.8009
91.3646	-316.8000	-6.8027
91.5651	-316.8000	-6.7999
91.7645	-316.8000	-6.7986
91.9659	-316.8000	-6.8008
92.1661	-316.8000	-6.7976
92.3664	-316.8000	-6.7970
92.5671	-316.8000	-6.7950
92.7673	-316.8000	-6.7925
92.9684	-316.8000	-6.7932
93.1692	-316.8000	-6.7893
93.3703	-316.8000	-6.7904
93.5702	-316.8000	-6.7879
93.7713	-316.8000	-6.7918
93.9715	-316.8000	-6.7898
94.1716	-316.8000	-6.7889
94.3725	-316.8000	-6.7881
94.5736	-316.8000	-6.7880
94.7740	-316.8000	-6.7879
94.9754	-316.8000	-6.7833
95.1765	-316.8000	-6.7835
95.3783	-316.8000	-6.7853
95.5793	-316.8000	-6.7854
95.7793	-316.8000	-6.7793
95.9802	-316.8000	-6.7798
96.1810	-316.8000	-6.7787
96.3813	-316.8000	-6.7800
96.5828	-316.8000	-6.7795
96.7832	-316.8000	-6.7772
96.9828	-316.8000	-6.7779
97.1849	-316.8000	-6.7765
97.3847	-316.8000	-6.7741
97.5853	-316.8000	-6.7748
97.7874	-316.8000	-6.7733
97.9898	-316.8000	-6.7769
98.1901	-316.8000	-6.7694
98.3898	-316.8000	-6.7681
98.5907	-316.8000	-6.7675
98.7911	-316.8000	-6.7722
98.9916	-316.8000	-6.7683
99.1919	-316.8000	-6.7686
99.3916	-316.8000	-6.7696
99.5928	-316.8000	-6.7661
99.7924	-316.8000	-6.7632
99.9939	-316.8000	-6.7653
100.1938	-316.8000	-6.7632
100.3940	-316.8000	-6.7646
100.5938	-316.8000	-6.7630
100.7945	-316.8000	-6.7610
100.9950	-316.8000	-6.7616
101.1947	-316.8000	-6.7616
101.3951	-316.8000	-6.7606
101.5952	-316.8000	-6.7579
101.7951	-316.8000	-6.7559
101.9951	-316.8000	-6.7577
102.1951	-316.8000	-6.7564
102.3959	-316.8000	-6.7540
102.5964	-316.8000	-6.7529
102.7982	-316.8000	-6.7559
102.9985	-316.8000	-6.7503
103.1989	-316.8000	-6.7495
103.3998	-316.8000	-6.7493
103.6005	-316.8000	-6.7510
103.8008	-316.8000	-6.7503
104.0020	-316.8000	-6.7490
104.2019	-316.8000	-6.7467
104.4014	-316.8000	-6.7485
104.6029	-316.8000	-6.7452
104.8037	-316.8000	-6.7424
105.0040	-316.8000	-6.7401
105.2037	-316.8000	-6.7438
105.4047	-316.8000	-6.7420
105.6046	-316.8000	-6.7442
105.8060	-316.8000	-6.7429
106.0067	-316.8000	-6.7423
106.2065	-316.8000	-6.7413
106.4066	-316.8000	-6.7379
106.6073	-316.8000	-6.7345
106.8073	-316.8000	-6.7353
107.0092	-316.8000	-6.7384
107.2091	-316.8000	-6.7327
107.4085	-316.8000	-6.7336
107.6087	-316.8000	-6.7351
107.8086	-316.8000	-6.7341
108.0101	-316.8000	-6.7323
108.2104	-316.8000	-6.7340
108.4110	-316.8000	-6.7312
108.6111	-316.8000	-6.7313
108.8110	-316.8000	-6.7307
109.0117	-316.8000	-6.7289
109.2125	-316.8000	-6.7286
109.4131	-316.8000	-6.7258
109.6128	-316.8000	-6.7307
109.8126	-316.8000	-6.7289
110.0132	-316.8000	-6.7220
110.2141	-316.8000	-6.7222
110.4138	-316.8000	-6.7217
110.6134	-316.8000	-6.7251
110.8147	-316.8000	-6.7219
111.0144	-316.8000	-6.7210
111.2174	-316.8000	-6.7203
111.4179	-316.8000	-6.7180
111.6181	-316.8000	-6.7177
111.8186	-316.8000	-6.7161
112.0199	-316.8000	-6.7178
112.2203	-316.8000	-6.7168
112.4212	-316.8000	-6.7144
112.6210	-316.8000	-6.7145
112.8208	-316.8000	-6.7167
113.0206	-316.8000	-6.7114
113.2219	-316.8000	-6.7156
113.4235	-316.8000	-6.7119
113.6239	-316.8000	-6.7123
113.8252	-316.8000	-6.7103
114.0251	-316.8000	-6.7089
114.2259	-316.8000	-6.7109
114.4265	-316.8000	-6.7093
114.6280	-316.8000	-6.7072
114.8275	-316.8000	-6.7091
115.0285	-316.8000	-6.7087
115.2294	-316.8000	-6.7078
115.4295	-316.8000	-6.7082
115.6313	-316.8000	-6.7046
115.8314	-316.8000	-6.7076
116.0317	-316.8000	-6.7067
116.2316	-316.8000	-6.7036
116.4318	-316.8000	-6.7029
116.6325	-316.8000	-6.7004
116.8341	-316.8000	-6.7019
117.0339	-316.8000	-6.7040
117.2352	-316.8000	-6.7015
117.4359	-316.8000	-6.7004
117.6374	-316.8000	-6.7022
117.8374	-316.8000	-6.6999
118.0376	-316.8000	-6.6993
118.2384	-316.8000	-6.6984
118.4390	-316.8000	-6.6989
118.6385	-316.8000	-6.6946
118.8396	-316.8000	-6.6977
119.0422	-316.8000	-6.6979
119.2440	-316.8000	-6.6955
119.4435	-316.8000	-6.6924
119.6446	-316.8000	-6.6970
119.8459	-316.8000	-6.6925
120.0467	-316.8000	-6.6929
120.2485	-316.8000	-6.6924
120.4486	-316.8000	-6.6928
120.6499	-316.8000	-6.6898
120.8500	-316.8000	-6.6915
121.0507	-316.8000	-6.6884
121.2514	-316.8000	-6.6896
121.4520	-316.8000	-6.6878
121.6515	-316.8000	-6.6844
121.8519	-316.8000	-6.6847
122.0526	-316.8000	-6.6870
122.2529	-316.8000	-6.6864
122.4543	-316.8000	-6.6840
122.6539	-316.8000	-6.6873
122.8541	-316.8000	-6.6859
123.0542	-316.8000	-6.6815
123.2543	-316.8000	-6.6834
123.4541	-316.8000	-6.6831
123.6543	-316.8000	-6.6838
123.8543	-316.8000	-6.6827
124.0542	-316.8000	-6.6834
124.2543	-316.8000	-6.6814
124.4555	-316.8000	-6.6778
124.6560	-316.8000	-6.6821
124.8569	-316.8000	-6.6808
125.0573	-316.8000	-6.6781
125.2580	-316.8000	-6.6819
125.4586	-316.8000	-6.6755
125.6586	-316.8000	-6.6753
125.8589	-316.8000	-6.6764
126.0591	-316.8000	-6.6743
126.2605	-316.8000	-6.6743
126.4596	-316.8000	-6.6780
126.6601	-316.8000	-6.6750
126.8606	-316.8000	-6.6773
127.0625	-316.8000	-6.6757
127.2616	-316.8000	-6.6732
127.4631	-316.8000	-6.6723
127.6639	-316.8000	-6.6709
127.8652	-316.8000	-6.6719
128.0662	-316.8000	-6.6711
128.2664	-316.8000	-6.6698
128.4684	-316.8000	-6.6711
128.6682	-316.8000	-6.6675
128.8681	-316.8000	-6.6690
129.0689	-316.8000	-6.6673
129.2691	-316.8000	-6.6636
129.4691	-316.8000	-6.6660
129.6688	-316.8000	-6.6651
129.8694	-316.8000	-6.6629
130.0696	-316.8000	-6.6651
130.2702	-316.8000	-6.6626
130.4698	-316.8000	-6.6639
130.6702	-316.8000	-6.6664
130.8696	-316.8000	-6.6634
131.0705	-316.8000	-6.6624
131.2703	-316.8000	-6.6612
131.4704	-316.8000	-6.6609
131.6713	-316.8000	-6.6580
131.8718	-316.8000	-6.6556
132.0726	-316.8000	-6.6590
132.2726	-316.8000	-6.6602
132.4727	-316.8000	-6.6533
132.6740	-316.8000	-6.6565
132.8740	-316.8000	-6.6576
133.0741	-316.8000	-6.6545
133.2742	-316.8000	-6.6569
133.4741	-316.8000	-6.6547
133.6740	-316.8000	-6.6567
133.8756	-316.8000	-6.6544
134.0760	-316.8000	-6.6546
134.2760	-316.8000	-6.6488
134.4766	-316.8000	-6.6485
134.6760	-316.8000	-6.6502
134.8767	-316.8000	-6.6519
135.0800	-316.8000	-6.6525
135.2788	-316.8000	-6.6481
135.4786	-316.8000	-6.6513
135.6793	-316.8000	-6.6514
135.8797	-316.8000	-6.6585
136.0809	-316.8000	-6.6557
136.2817	-316.8000	-6.6525
136.4820	-316.8000	-6.6503
136.6817	-316.8000	-6.6477
136.8820	-316.8000	-6.6545
137.0820	-316.8000	-6.6428
137.2836	-316.8000	-6.6466
137.4836	-316.8000	-6.6451
137.6844	-316.8000	-6.6432
137.8843	-316.8000	-6.6483
138.0840	-316.8000	-6.6463
138.2842	-316.8000	-6.6415
138.4843	-316.8000	-6.6432
138.6844	-316.8000	-6.6399
138.8838	-316.8000	-6.6406
139.0854	-316.8000	-6.6359
139.2860	-316.8000	-6.6411
139.4876	-316.8000	-6.6376
139.6869	-316.8000	-6.6378
139.8891	-316.8000	-6.6386
140.0900	-316.8000	-6.6387
140.2903	-316.8000	-6.6353
140.4920	-316.8000	-6.6390
140.6927	-316.8000	-6.6387
140.8947	-316.8000	-6.6361
141.0957	-316.8000	-6.6396
141.2962	-316.8000	-6.6393
141.4964	-316.8000	-6.6358
141.6970	-316.8000	-6.6325
141.8973	-316.8000	-6.6342
142.0968	-316.8000	-6.6329
142.2967	-316.8000	-6.6286
142.4975	-316.8000	-6.6320
142.6971	-316.8000	-6.6359
142.8967	-316.8000	-6.6340
143.0972	-316.8000	-6.6362
143.2979	-316.8000	-6.6314
143.4994	-316.8000	-6.6299
143.6997	-316.8000	-6.6300
143.8987	-316.8000	-6.6317
144.1003	-316.8000	-6.6280
144.3008	-316.8000	-6.6271
144.5015	-316.8000	-6.6259
144.7020	-316.8000	-6.6282
144.9022	-316.8000	-6.6306
145.1020	-316.8000	-6.6281
145.3028	-316.8000	-6.6271
145.5039	-316.8000	-6.6264
145.7040	-316.8000	-6.6262
145.9045	-316.8000	-6.6250
146.1044	-316.8000	-6.6323
146.3048	-316.8000	-6.6221
146.5053	-316.8000	-6.6250
146.7063	-316.8000	-6.6252
146.9070	-316.8000	-6.6224
147.1075	-316.8000	-6.6233
147.3082	-316.8000	-6.6248
147.5095	-316.8000	-6.6247
147.7106	-316.8000	-6.6182
147.9104	-316.8000	-6.6216
148.1102	-316.8000	-6.6199
148.3102	-316.8000	-6.6216
148.5118	-316.8000	-6.6168
148.7133	-316.8000	-6.6185
148.9143	-316.8000	-6.6230
149.1144	-316.8000	-6.6195
149.3142	-316.8000	-6.6166
149.5138	-316.8000	-6.6206
149.7142	-316.8000	-6.6236
149.9145	-316.8000	-6.6191
150.1141	-316.8000	-6.6162
150.3152	-316.8000	-6.6122
150.5153	-316.8000	-6.6154
150.7155	-316.8000	-6.6199
150.9150	-316.8000	-6.6150
151.1163	-316.8000	-6.6147
151.3169	-316.8000	-6.6148
151.5169	-316.8000	-6.6150
151.7171	-316.8000	-6.6148
151.9168	-316.8000	-6.6124
152.1173	-316.8000	-6.6135
152.3170	-316.8000	-6.6096
152.5186	-316.8000	-6.6091
152.7187	-316.8000	-6.6111
152.9184	-316.8000	-6.6098
153.1195	-316.8000	-6.6110
153.3192	-316.8000	-6.6101
153.5202	-316.8000	-6.6145
153.7202	-316.8000	-6.6073
153.9224	-316.8000	-6.6091
154.1261	-316.8000	-6.6131
154.3259	-316.8000	-6.6096
154.5259	-316.8000	-6.6070
154.7273	-316.8000	-6.6059
154.9279	-316.8000	-6.6065
155.1282	-316.8000	-6.6026
155.3289	-316.8000	-6.6074
155.5293	-316.8000	-6.6071
155.7299	-316.8000	-6.6079
155.9309	-316.8000	-6.6019
156.1315	-316.8000	-6.6061
156.3318	-316.8000	-6.6111
156.5319	-316.8000	-6.6035
156.7341	-316.8000	-6.6062
156.9338	-316.8000	-6.6017
157.1349	-316.8000	-6.6028
157.3352	-316.8000	-6.6003
157.5361	-316.8000	-6.6014
157.7359	-316.8000	-6.6003
157.9364	-316.8000	-6.6016
158.1371	-316.8000	-6.5982
158.3377	-316.8000	-6.5981
158.5377	-316.8000	-6.5971
158.7376	-316.8000	-6.5981
158.9380	-316.8000	-6.6012
159.1380	-316.8000	-6.5946
159.3399	-316.8000	-6.5967
159.5415	-316.8000	-6.5959
159.7412	-316.8000	-6.5963
159.9421	-316.8000	-6.5972
160.1422	-316.8000	-6.5981
160.3442	-316.8000	-6.5968
160.5440	-316.8000	-6.6002
160.7442	-316.8000	-6.5982
160.9446	-316.8000	-6.5958
161.1446	-316.8000	-6.5938
161.3440	-316.8000	-6.5931
161.5453	-316.8000	-6.5935
161.7453	-316.8000	-6.5949
161.9461	-316.8000	-6.5918
162.1470	-316.8000	-6.5956
162.3486	-316.8000	-6.5922
162.5497	-316.8000	-6.5907
162.7505	-316.6660	-6.5934
162.9703	-315.5660	-6.5889
163.1703	-314.2330	-6.5916
163.3707	-312.9000	-4.7588
163.5721	-311.5670	-2.6994
163.7738	-310.2340	-1.2926
163.9746	-308.9010	-0.3253
164.1742	-307.5670	0.3295
164.3744	-306.2340	0.7602
164.5741	-304.9010	1.0394
164.7743	-303.5690	1.2227
164.9743	-302.2010	1.3259
165.1741	-300.9020	1.3867
165.3751	-299.5330	1.4141
165.5756	-298.2000	1.4225
165.7766	-296.8670	1.4130
165.9779	-295.5340	1.4054
166.1773	-294.2010	1.3822
166.3769	-292.8650	1.3630
166.5778	-291.5320	1.3414
166.7769	-290.1970	1.3176
166.9777	-288.8620	1.3035
167.1779	-287.5290	1.2788
167.3777	-286.1960	1.2654
167.5769	-284.8630	1.2520
167.7789	-283.5300	1.2322
167.9797	-282.1970	1.2211
168.1794	-280.8640	1.2098
168.3809	-279.4960	1.2036
168.5824	-278.1630	1.1905
168.7823	-276.8310	1.1868
168.9831	-275.4980	1.1776
169.1842	-274.1640	1.1726
169.3846	-272.8290	1.1644
169.5845	-271.4620	1.1634
169.7840	-270.1630	1.1542
169.9847	-268.8280	1.1471
170.1847	-267.4940	1.1516
170.3847	-266.7990	1.1472
170.5844	-266.7990	1.1494
170.7856	-266.7990	1.1319
170.9859	-266.7990	1.1487
171.1867	-266.8000	1.1521
171.3868	-266.8000	1.1533
171.5869	-266.8000	1.1552
171.7875	-266.8000	1.1529
171.9877	-266.8000	1.1531
172.1885	-266.8000	1.1579
172.3896	-266.8000	1.1592
172.5909	-266.8000	1.1550
172.7909	-266.8000	1.1525
172.9903	-266.8000	1.1555
173.1901	-266.8000	1.1521
173.3904	-266.8000	1.1485
173.5914	-266.8000	1.1489
173.7922	-266.8000	1.1479
173.9929	-266.8000	1.1496
174.1920	-266.8000	1.1471
174.3926	-266.8000	1.1469
174.5923	-266.8000	1.1502
174.7936	-266.8000	1.1467
174.9945	-266.8000	1.1492
175.1966	-266.8000	1.1479
175.3964	-266.8000	1.1503
175.5970	-266.8000	1.1498
175.7972	-266.8000	1.1489
175.9985	-266.8000	1.1494
176.1995	-266.8000	1.1503
176.3997	-266.8000	1.1507
176.6000	-266.8000	1.1464
176.8010	-266.8000	1.1470
177.0023	-266.8000	1.1519
177.2048	-266.8000	1.1524
177.4045	-266.8000	1.1499
177.6047	-266.8000	1.1512
177.8042	-266.8000	1.1476
178.0048	-266.8000	1.1499
178.2048	-266.8000	1.1479
178.4046	-266.8000	1.1497
178.6055	-266.8000	1.1521
178.8051	-266.8000	1.1498
179.0063	-266.8000	1.1525
179.2067	-266.8000	1.1486
179.4078	-266.8000	1.1542
179.6081	-266.8000	1.1511