File: Tinius-Olsen_Levitation_force/Measurements/20231204_1545YBCOs1_sl9_5.txt
4/12/2023 3:45:38 pm
Time(s)	Displacement(mm)	Force(N)
0.0000	-265.7740	1.2462
0.2217	-266.8710	1.2419
0.4214	-268.2040	1.2277
0.6218	-269.5370	1.2051
0.8216	-270.8710	1.1823
1.0229	-272.2060	1.1659
1.2242	-273.5390	1.1453
1.4239	-274.8720	1.1419
1.6261	-276.2400	1.1368
1.8263	-277.5730	1.1339
2.0273	-278.9050	1.1315
2.2269	-280.2380	1.1312
2.4278	-281.5710	1.1283
2.6282	-282.9040	1.1295
2.8284	-284.2400	1.1290
3.0284	-285.5750	1.1272
3.2289	-286.9080	1.1267
3.4292	-288.2410	1.1238
3.6292	-289.5740	1.1222
3.8293	-290.9100	1.1150
4.0309	-292.2430	1.1074
4.2311	-293.5760	1.0988
4.4316	-294.9430	1.0827
4.6328	-296.2760	1.0650
4.8336	-297.6080	1.0376
5.0353	-298.9760	0.9983
5.2356	-300.2750	0.9587
5.4361	-301.6080	0.9066
5.6359	-302.9410	0.8506
5.8358	-304.2740	0.7763
6.0356	-305.6410	0.6992
6.2369	-306.9740	0.6033
6.4372	-308.3070	0.4858
6.6382	-309.6400	0.3582
6.8380	-310.9730	0.2002
7.0390	-312.3060	0.0092
7.2385	-313.6390	-0.2214
7.4386	-314.9720	-0.5368
7.6396	-315.6410	-0.9771
7.8402	-315.6410	-0.8765
8.0399	-315.6400	-0.8317
8.2398	-315.6400	-0.8022
8.4402	-315.6400	-0.7776
8.6402	-315.6400	-0.7663
8.8406	-315.6400	-0.7532
9.0411	-315.6400	-0.7404
9.2404	-315.6400	-0.7319
9.4407	-315.6400	-0.7207
9.6407	-315.6400	-0.7196
9.8407	-315.6400	-0.7109
10.0406	-315.6400	-0.7024
10.2407	-315.6400	-0.6995
10.4406	-315.6400	-0.6965
10.6422	-315.6400	-0.6902
10.8433	-315.6400	-0.6850
11.0440	-315.6400	-0.6828
11.2463	-315.6400	-0.6784
11.4465	-315.6400	-0.6777
11.6475	-315.6400	-0.6713
11.8490	-315.6400	-0.6703
12.0495	-315.6400	-0.6701
12.2507	-315.6400	-0.6644
12.4508	-315.6400	-0.6634
12.6508	-315.6400	-0.6589
12.8527	-315.6400	-0.6535
13.0546	-315.6400	-0.6538
13.2553	-315.6400	-0.6513
13.4546	-315.6400	-0.6492
13.6546	-315.6400	-0.6464
13.8559	-315.6400	-0.6489
14.0565	-315.6400	-0.6423
14.2583	-315.6400	-0.6414
14.4577	-315.6400	-0.6415
14.6579	-315.6400	-0.6393
14.8587	-315.6400	-0.6357
15.0588	-315.6400	-0.6374
15.2599	-315.6400	-0.6336
15.4597	-315.6400	-0.6315
15.6607	-315.6400	-0.6298
15.8616	-315.6400	-0.6311
16.0617	-315.6400	-0.6282
16.2624	-315.6400	-0.6261
16.4628	-315.6400	-0.6259
16.6625	-315.6400	-0.6243
16.8628	-315.6400	-0.6224
17.0626	-315.6400	-0.6229
17.2627	-315.6400	-0.6198
17.4628	-315.6400	-0.6172
17.6629	-315.6400	-0.6166
17.8628	-315.6400	-0.6200
18.0629	-315.6400	-0.6169
18.2627	-315.6400	-0.6136
18.4635	-315.6400	-0.6110
18.6653	-315.6400	-0.6102
18.8653	-315.6400	-0.6111
19.0659	-315.6400	-0.6090
19.2662	-315.6400	-0.6077
19.4664	-315.6400	-0.6077
19.6662	-315.6400	-0.6074
19.8661	-315.6400	-0.6067
20.0665	-315.6400	-0.6044
20.2688	-315.6400	-0.6001
20.4689	-315.6400	-0.6015
20.6701	-315.6400	-0.5996
20.8722	-315.6400	-0.5992
21.0725	-315.6400	-0.6006
21.2738	-315.6400	-0.6016
21.4738	-315.6400	-0.5993
21.6739	-315.6400	-0.5986
21.8751	-315.6400	-0.5980
22.0752	-315.6400	-0.5968
22.2750	-315.6400	-0.5964
22.4761	-315.6400	-0.5942
22.6759	-315.6400	-0.5930
22.8765	-315.6400	-0.5925
23.0770	-315.6400	-0.5931
23.2770	-315.6400	-0.5921
23.4766	-315.6400	-0.5911
23.6767	-315.6400	-0.5925
23.8791	-315.6400	-0.5864
24.0802	-315.6400	-0.5873
24.2802	-315.6400	-0.5877
24.4803	-315.6400	-0.5866
24.6812	-315.6400	-0.5870
24.8808	-315.6400	-0.5870
25.0809	-315.6400	-0.5843
25.2824	-315.6400	-0.5831
25.4825	-315.6400	-0.5827
25.6831	-315.6400	-0.5836
25.8832	-315.6400	-0.5794
26.0841	-315.6400	-0.5804
26.2847	-315.6400	-0.5797
26.4864	-315.6400	-0.5811
26.6859	-315.6400	-0.5825
26.8857	-315.6400	-0.5816
27.0878	-315.6400	-0.5792
27.2885	-315.6400	-0.5810
27.4885	-315.6400	-0.5791
27.6891	-315.6400	-0.5763
27.8886	-315.6400	-0.5759
28.0890	-315.6400	-0.5767
28.2911	-315.6400	-0.5737
28.4922	-315.6400	-0.5735
28.6928	-315.6400	-0.5713
28.8941	-315.6400	-0.5732
29.0958	-315.6400	-0.5710
29.2971	-315.6400	-0.5718
29.4968	-315.6400	-0.5701
29.6985	-315.6400	-0.5689
29.8979	-315.6400	-0.5689
30.0992	-315.6400	-0.5670
30.3007	-315.6400	-0.5689
30.5005	-315.6400	-0.5679
30.7020	-315.6400	-0.5671
30.9030	-315.6400	-0.5699
31.1044	-315.6400	-0.5642
31.3036	-315.6400	-0.5668
31.5044	-315.6400	-0.5673
31.7036	-315.6400	-0.5683
31.9036	-315.6400	-0.5684
32.1040	-315.6400	-0.5655
32.3051	-315.6400	-0.5686
32.5057	-315.6400	-0.5674
32.7060	-315.6400	-0.5640
32.9065	-315.6400	-0.5635
33.1069	-315.6400	-0.5656
33.3078	-315.6400	-0.5642
33.5083	-315.6400	-0.5647
33.7081	-315.6400	-0.5626
33.9104	-315.6400	-0.5625
34.1104	-315.6400	-0.5637
34.3109	-315.6400	-0.5613
34.5116	-315.6400	-0.5604
34.7117	-315.6400	-0.5590
34.9126	-315.6400	-0.5595
35.1130	-315.6400	-0.5603
35.3137	-315.6400	-0.5578
35.5141	-315.6400	-0.5560
35.7156	-315.6400	-0.5566
35.9153	-315.6400	-0.5553
36.1152	-315.6400	-0.5558
36.3155	-315.6400	-0.5566
36.5168	-315.6400	-0.5590
36.7183	-315.6400	-0.5566
36.9190	-315.6400	-0.5589
37.1190	-315.6400	-0.5554
37.3196	-315.6400	-0.5551
37.5213	-315.6400	-0.5546
37.7225	-315.6400	-0.5539
37.9216	-315.6400	-0.5530
38.1232	-315.6400	-0.5533
38.3255	-315.6400	-0.5531
38.5263	-315.6400	-0.5551
38.7282	-315.6400	-0.5531
38.9283	-315.6400	-0.5522
39.1290	-315.6400	-0.5517
39.3305	-315.6400	-0.5520
39.5322	-315.6400	-0.5550
39.7343	-315.6400	-0.5514
39.9354	-315.6400	-0.5518
40.1360	-315.6400	-0.5492
40.3364	-315.6400	-0.5490
40.5363	-315.6400	-0.5498
40.7363	-315.6400	-0.5520
40.9370	-315.6400	-0.5511
41.1371	-315.6400	-0.5486
41.3384	-315.6400	-0.5478
41.5379	-315.6400	-0.5506
41.7385	-315.6400	-0.5492
41.9379	-315.6400	-0.5470
42.1379	-315.6400	-0.5458
42.3377	-315.6400	-0.5462
42.5385	-315.6400	-0.5453
42.7381	-315.6400	-0.5468
42.9377	-315.6400	-0.5466
43.1386	-315.6400	-0.5467
43.3387	-315.6400	-0.5442
43.5401	-315.6400	-0.5462
43.7426	-315.6400	-0.5447
43.9433	-315.6400	-0.5450
44.1440	-315.6400	-0.5481
44.3441	-315.6400	-0.5453
44.5445	-315.6400	-0.5443
44.7453	-315.6400	-0.5429
44.9450	-315.6400	-0.5452
45.1456	-315.6400	-0.5412
45.3453	-315.6400	-0.5443
45.5456	-315.6400	-0.5439
45.7451	-315.6400	-0.5429
45.9461	-315.6400	-0.5442
46.1468	-315.6400	-0.5423
46.3487	-315.6400	-0.5404
46.5503	-315.6400	-0.5414
46.7516	-315.6400	-0.5412
46.9513	-315.6400	-0.5406
47.1510	-315.6400	-0.5425
47.3521	-315.6400	-0.5389
47.5529	-315.6400	-0.5398
47.7529	-315.6400	-0.5397
47.9544	-315.6400	-0.5386
48.1563	-315.6400	-0.5374
48.3561	-315.6400	-0.5396
48.5574	-315.6400	-0.5366
48.7571	-315.6400	-0.5392
48.9568	-315.6400	-0.5358
49.1583	-315.6400	-0.5365
49.3580	-315.6400	-0.5361
49.5587	-315.6400	-0.5377
49.7580	-315.6400	-0.5392
49.9578	-315.6400	-0.5380
50.1582	-315.6400	-0.5338
50.3592	-315.6400	-0.5356
50.5604	-315.6400	-0.5331
50.7606	-315.6400	-0.5363
50.9604	-315.6400	-0.5341
51.1604	-315.6400	-0.5348
51.3605	-315.6400	-0.5322
51.5603	-315.6400	-0.5306
51.7614	-315.6400	-0.5321
51.9614	-315.6400	-0.5319
52.1633	-315.6400	-0.5325
52.3653	-315.6400	-0.5316
52.5653	-315.6400	-0.5309
52.7655	-315.6400	-0.5331
52.9656	-315.6400	-0.5343
53.1648	-315.6400	-0.5312
53.3657	-315.6400	-0.5306
53.5664	-315.6400	-0.5302
53.7660	-315.6400	-0.5312
53.9664	-315.6400	-0.5294
54.1664	-315.6400	-0.5303
54.3670	-315.6400	-0.5300
54.5668	-315.6400	-0.5330
54.7689	-315.6400	-0.5312
54.9693	-315.6400	-0.5290
55.1704	-315.6400	-0.5327
55.3711	-315.6400	-0.5312
55.5711	-315.6400	-0.5288
55.7718	-315.6400	-0.5308
55.9720	-315.6400	-0.5326
56.1725	-315.6400	-0.5283
56.3730	-315.6400	-0.5272
56.5742	-315.6400	-0.5265
56.7741	-315.6400	-0.5272
56.9758	-315.6400	-0.5301
57.1766	-315.6400	-0.5246
57.3759	-315.6400	-0.5255
57.5768	-315.6400	-0.5284
57.7784	-315.6400	-0.5261
57.9783	-315.6400	-0.5280
58.1787	-315.6400	-0.5264
58.3783	-315.6400	-0.5275
58.5797	-315.6400	-0.5255
58.7802	-315.6400	-0.5265
58.9811	-315.6400	-0.5245
59.1823	-315.6400	-0.5228
59.3826	-315.6400	-0.5229
59.5842	-315.6400	-0.5277
59.7848	-315.6400	-0.5261
59.9842	-315.6400	-0.5254
60.1848	-315.6400	-0.5249
60.3870	-315.6400	-0.5243
60.5893	-315.6400	-0.5256
60.7889	-315.6400	-0.5250
60.9899	-315.6400	-0.5232
61.1904	-315.6400	-0.5215
61.3908	-315.6400	-0.5242
61.5924	-315.6400	-0.5234
61.7954	-315.6400	-0.5235
61.9954	-315.6400	-0.5247
62.1956	-315.6400	-0.5217
62.3967	-315.6400	-0.5189
62.5965	-315.6400	-0.5224
62.7964	-315.6400	-0.5207
62.9975	-315.6400	-0.5183
63.1985	-315.6400	-0.5192
63.3987	-315.6400	-0.5210
63.5988	-315.6400	-0.5217
63.7999	-315.6400	-0.5212
64.0000	-315.6400	-0.5201
64.2015	-315.6400	-0.5214
64.4012	-315.6400	-0.5159
64.6013	-315.6400	-0.5177
64.8022	-315.6400	-0.5183
65.0028	-315.6400	-0.5187
65.2033	-315.6400	-0.5168
65.4044	-315.6400	-0.5205
65.6046	-315.6400	-0.5199
65.8049	-315.6400	-0.5189
66.0054	-315.6400	-0.5205
66.2065	-315.6400	-0.5163
66.4071	-315.6400	-0.5195
66.6080	-315.6400	-0.5160
66.8104	-315.6400	-0.5177
67.0107	-315.6400	-0.5169
67.2104	-315.6400	-0.5173
67.4113	-315.6400	-0.5164
67.6112	-315.6400	-0.5189
67.8112	-315.6400	-0.5150
68.0116	-315.6400	-0.5158
68.2112	-315.6400	-0.5146
68.4124	-315.6400	-0.5153
68.6124	-315.6400	-0.5135
68.8133	-315.6400	-0.5173
69.0129	-315.6400	-0.5138
69.2132	-315.6400	-0.5160
69.4142	-315.6400	-0.5152
69.6157	-315.6400	-0.5149
69.8153	-315.6400	-0.5151
70.0164	-315.6400	-0.5146
70.2183	-315.6400	-0.5150
70.4203	-315.6400	-0.5152
70.6214	-315.6400	-0.5152
70.8209	-315.6400	-0.5165
71.0225	-315.6400	-0.5160
71.2219	-315.6400	-0.5165
71.4232	-315.6400	-0.5166
71.6230	-315.6400	-0.5167
71.8236	-315.6400	-0.5147
72.0249	-315.6400	-0.5130
72.2250	-315.6400	-0.5113
72.4266	-315.6400	-0.5139
72.6268	-315.6400	-0.5154
72.8277	-315.6400	-0.5107
73.0275	-315.6400	-0.5147
73.2271	-315.6400	-0.5123
73.4279	-315.6400	-0.5153
73.6271	-315.6400	-0.5108
73.8287	-315.6400	-0.5130
74.0284	-315.6400	-0.5120
74.2290	-315.6400	-0.5169
74.4304	-315.6400	-0.5141
74.6310	-315.6400	-0.5140
74.8313	-315.6400	-0.5102
75.0313	-315.6400	-0.5132
75.2311	-315.6400	-0.5121
75.4324	-315.6400	-0.5104
75.6326	-315.6400	-0.5113
75.8333	-315.6400	-0.5087
76.0337	-315.6400	-0.5105
76.2334	-315.6400	-0.5105
76.4333	-315.6400	-0.5111
76.6335	-315.6400	-0.5087
76.8331	-315.6400	-0.5099
77.0336	-315.6400	-0.5112
77.2331	-315.6400	-0.5109
77.4334	-315.6400	-0.5075
77.6336	-315.6400	-0.5074
77.8346	-315.6400	-0.5060
78.0354	-315.6400	-0.5085
78.2354	-315.6400	-0.5083
78.4357	-315.6400	-0.5091
78.6368	-315.6400	-0.5098
78.8366	-315.6400	-0.5094
79.0382	-315.6400	-0.5081
79.2394	-315.6400	-0.5089
79.4391	-315.6400	-0.5087
79.6396	-315.6400	-0.5094
79.8391	-315.6400	-0.5096
80.0401	-315.6400	-0.5087
80.2403	-315.6400	-0.5074
80.4408	-315.6400	-0.5069
80.6413	-315.6400	-0.5062
80.8413	-315.6400	-0.5052
81.0414	-315.6400	-0.5075
81.2414	-315.6400	-0.5039
81.4415	-315.6400	-0.5067
81.6414	-315.6400	-0.5066
81.8414	-315.6400	-0.5069
82.0413	-315.6400	-0.5064
82.2415	-315.6400	-0.5071
82.4418	-315.6400	-0.5057
82.6428	-315.6400	-0.5050
82.8436	-315.6400	-0.5053
83.0436	-315.6400	-0.5047
83.2439	-315.6400	-0.5059
83.4435	-315.6400	-0.5055
83.6437	-315.6400	-0.5037
83.8436	-315.6400	-0.5046
84.0435	-315.6400	-0.5036
84.2436	-315.6400	-0.5024
84.4448	-315.6400	-0.5046
84.6450	-315.6400	-0.5043
84.8458	-315.6400	-0.5041
85.0460	-315.6400	-0.5051
85.2454	-315.6400	-0.5028
85.4464	-315.6400	-0.5045
85.6471	-315.6400	-0.5044
85.8481	-315.6400	-0.5038
86.0486	-315.6400	-0.5008
86.2500	-315.6400	-0.5044
86.4502	-315.6400	-0.5067
86.6510	-315.6400	-0.5070
86.8508	-315.6400	-0.5051
87.0501	-315.6400	-0.5068
87.2507	-315.6400	-0.5049
87.4501	-315.6400	-0.5057
87.6526	-315.6400	-0.5040
87.8536	-315.6400	-0.5044
88.0536	-315.6400	-0.5012
88.2538	-315.6400	-0.5044
88.4537	-315.6400	-0.5031
88.6546	-315.6400	-0.5038
88.8560	-315.6400	-0.5015
89.0571	-315.6400	-0.4989
89.2595	-315.6400	-0.5017
89.4608	-315.6400	-0.5015
89.6605	-315.6400	-0.5004
89.8611	-315.6400	-0.5024
90.0626	-315.6400	-0.4995
90.2642	-315.6400	-0.5028
90.4643	-315.6400	-0.4971
90.6651	-315.6400	-0.5027
90.8664	-315.6400	-0.5008
91.0668	-315.6400	-0.5008
91.2676	-315.6400	-0.5000
91.4686	-315.6400	-0.4995
91.6689	-315.6400	-0.5008
91.8701	-315.6400	-0.4986
92.0717	-315.6400	-0.5012
92.2722	-315.6400	-0.5009
92.4747	-315.6400	-0.5013
92.6756	-315.6400	-0.5003
92.8768	-315.6400	-0.4983
93.0790	-315.6400	-0.4992
93.2798	-315.6400	-0.4988
93.4797	-315.6400	-0.5006
93.6801	-315.6400	-0.4989
93.8797	-315.6400	-0.4984
94.0799	-315.6400	-0.4984
94.2817	-315.6400	-0.5005
94.4814	-315.6400	-0.5003
94.6817	-315.6400	-0.4984
94.8815	-315.6400	-0.4982
95.0815	-315.6400	-0.5006
95.2815	-315.6400	-0.4970
95.4815	-315.6400	-0.4977
95.6819	-315.6400	-0.4956
95.8829	-315.6400	-0.4981
96.0822	-315.6400	-0.4998
96.2846	-315.6400	-0.5006
96.4861	-315.6400	-0.4979
96.6873	-315.6400	-0.4950
96.8888	-315.6400	-0.4954
97.0882	-315.6400	-0.4952
97.2891	-315.6400	-0.4949
97.4891	-315.6400	-0.4964
97.6892	-315.6400	-0.4977
97.8890	-315.6400	-0.4990
98.0892	-315.6400	-0.4964
98.2884	-315.6400	-0.4960
98.4887	-315.6400	-0.4976
98.6893	-315.6400	-0.4954
98.8896	-315.6400	-0.4942
99.0903	-315.6400	-0.4947
99.2926	-315.6400	-0.4972
99.4929	-315.6400	-0.4959
99.6938	-315.6400	-0.4947
99.8936	-315.6400	-0.4969
100.0938	-315.6400	-0.4923
100.2935	-315.6400	-0.4929
100.4945	-315.6400	-0.4927
100.6944	-315.6400	-0.4930
100.8945	-315.6400	-0.4940
101.0958	-315.6400	-0.4965
101.2959	-315.6400	-0.4956
101.4959	-315.6400	-0.4975
101.6958	-315.6400	-0.4953
101.8953	-315.6400	-0.4949
102.0953	-315.6400	-0.4933
102.2963	-315.6400	-0.4941
102.4976	-315.6400	-0.4917
102.6990	-315.6400	-0.4931
102.8991	-315.6400	-0.4943
103.0993	-315.6400	-0.4917
103.2992	-315.6400	-0.4911
103.5003	-315.6400	-0.4936
103.7010	-315.6400	-0.4914
103.9005	-315.6400	-0.4921
104.1003	-315.6400	-0.4912
104.3025	-315.6400	-0.4902
104.5042	-315.6400	-0.4928
104.7036	-315.6400	-0.4934
104.9034	-315.6400	-0.4920
105.1047	-315.6400	-0.4924
105.3045	-315.6400	-0.4929
105.5067	-315.6400	-0.4911
105.7074	-315.6400	-0.4905
105.9090	-315.6400	-0.4905
106.1110	-315.6400	-0.4922
106.3111	-315.6400	-0.4918
106.5113	-315.6400	-0.4924
106.7126	-315.6400	-0.4914
106.9140	-315.6400	-0.4912
107.1139	-315.6400	-0.4931
107.3140	-315.6400	-0.4921
107.5138	-315.6400	-0.4928
107.7136	-315.6400	-0.4895
107.9150	-315.6400	-0.4910
108.1152	-315.6400	-0.4923
108.3148	-315.6400	-0.4885
108.5159	-315.6400	-0.4911
108.7158	-315.6400	-0.4905
108.9170	-315.6400	-0.4920
109.1174	-315.6400	-0.4902
109.3174	-315.6400	-0.4899
109.5183	-315.6400	-0.4917
109.7199	-315.6400	-0.4882
109.9193	-315.6400	-0.4881
110.1197	-315.6400	-0.4911
110.3197	-315.6400	-0.4915
110.5198	-315.6400	-0.4902
110.7198	-315.6400	-0.4918
110.9193	-315.6400	-0.4903
111.1210	-315.6400	-0.4940
111.3220	-315.6400	-0.4914
111.5228	-315.6400	-0.4906
111.7224	-315.6400	-0.4882
111.9239	-315.6400	-0.4903
112.1236	-315.6400	-0.4898
112.3239	-315.6400	-0.4876
112.5238	-315.6400	-0.4883
112.7242	-315.6400	-0.4878
112.9239	-315.6400	-0.4880
113.1250	-315.6400	-0.4903
113.3252	-315.6400	-0.4879
113.5247	-315.6400	-0.4876
113.7252	-315.6400	-0.4869
113.9252	-315.6400	-0.4867
114.1247	-315.6400	-0.4879
114.3259	-315.6400	-0.4892
114.5266	-315.6400	-0.4877
114.7278	-315.6400	-0.4874
114.9293	-315.6400	-0.4856
115.1284	-315.6400	-0.4858
115.3285	-315.6400	-0.4876
115.5288	-315.6400	-0.4851
115.7288	-315.6400	-0.4876
115.9288	-315.6400	-0.4878
116.1295	-315.6400	-0.4858
116.3305	-315.6400	-0.4854
116.5317	-315.6400	-0.4866
116.7317	-315.6400	-0.4860
116.9321	-315.6400	-0.4860
117.1319	-315.6400	-0.4875
117.3317	-315.6400	-0.4879
117.5316	-315.6400	-0.4840
117.7317	-315.6400	-0.4863
117.9317	-315.6400	-0.4843
118.1314	-315.6400	-0.4850
118.3329	-315.6400	-0.4859
118.5328	-315.6400	-0.4856
118.7348	-315.6400	-0.4863
118.9349	-315.6400	-0.4863
119.1351	-315.6400	-0.4851
119.3348	-315.6400	-0.4849
119.5349	-315.6400	-0.4838
119.7347	-315.6400	-0.4835
119.9369	-315.6400	-0.4819
120.1377	-315.6400	-0.4865
120.3399	-315.6400	-0.4836
120.5397	-315.6400	-0.4852
120.7401	-315.6400	-0.4849
120.9410	-315.6400	-0.4849
121.1401	-315.6400	-0.4842
121.3407	-315.6400	-0.4839
121.5416	-315.6400	-0.4826
121.7444	-315.6400	-0.4850
121.9464	-315.6400	-0.4854
122.1469	-315.6400	-0.4843
122.3483	-315.6400	-0.4832
122.5482	-315.6400	-0.4846
122.7491	-315.6400	-0.4848
122.9487	-315.6400	-0.4815
123.1490	-315.6400	-0.4824
123.3488	-315.6400	-0.4804
123.5494	-315.6400	-0.4802
123.7500	-315.6400	-0.4812
123.9515	-315.6400	-0.4811
124.1518	-315.6400	-0.4810
124.3518	-315.6400	-0.4796
124.5531	-315.6400	-0.4804
124.7554	-315.6400	-0.4808
124.9560	-315.6400	-0.4804
125.1569	-315.6400	-0.4814
125.3573	-315.6400	-0.4822
125.5571	-315.6400	-0.4803
125.7581	-315.6400	-0.4791
125.9578	-315.6400	-0.4795
126.1579	-315.6400	-0.4809
126.3582	-315.6400	-0.4801
126.5582	-315.6400	-0.4789
126.7591	-315.6400	-0.4832
126.9596	-315.6400	-0.4796
127.1603	-315.6400	-0.4785
127.3604	-315.6400	-0.4798
127.5595	-315.6400	-0.4776
127.7595	-315.6400	-0.4777
127.9608	-315.6400	-0.4781
128.1616	-315.6400	-0.4799
128.3630	-315.6400	-0.4782
128.5654	-315.6400	-0.4776
128.7655	-315.6400	-0.4771
128.9655	-315.6400	-0.4772
129.1662	-315.6400	-0.4775
129.3659	-315.6400	-0.4763
129.5655	-315.6400	-0.4775
129.7660	-315.6400	-0.4776
129.9665	-315.6400	-0.4755
130.1680	-315.6400	-0.4769
130.3696	-315.6400	-0.4804
130.5710	-315.6400	-0.4793
130.7722	-315.6400	-0.4797
130.9726	-315.6400	-0.4788
131.1732	-315.6400	-0.4794
131.3730	-315.6400	-0.4785
131.5727	-315.6400	-0.4825
131.7740	-315.6400	-0.4824
131.9738	-315.6400	-0.4806
132.1742	-315.6400	-0.4790
132.3742	-315.6400	-0.4796
132.5742	-315.6400	-0.4778
132.7742	-315.6400	-0.4782
132.9749	-315.6400	-0.4784
133.1749	-315.6400	-0.4799
133.3751	-315.6400	-0.4782
133.5763	-315.6400	-0.4792
133.7759	-315.6400	-0.4771
133.9762	-315.6400	-0.4781
134.1765	-315.6400	-0.4757
134.3764	-315.6400	-0.4778
134.5761	-315.6400	-0.4773
134.7759	-315.6400	-0.4748
134.9771	-315.6400	-0.4755
135.1769	-315.6400	-0.4747
135.3770	-315.6400	-0.4764
135.5768	-315.6400	-0.4785
135.7780	-315.6400	-0.4808
135.9779	-315.6400	-0.4774
136.1803	-315.6400	-0.4775
136.3824	-315.6400	-0.4749
136.5816	-315.6400	-0.4751
136.7819	-315.6400	-0.4760
136.9832	-315.6400	-0.4754
137.1841	-315.6400	-0.4739
137.3836	-315.6400	-0.4742
137.5843	-315.6400	-0.4728
137.7835	-315.6400	-0.4723
137.9856	-315.6400	-0.4745
138.1857	-315.6400	-0.4742
138.3861	-315.6400	-0.4750
138.5856	-315.6400	-0.4761
138.7865	-315.6400	-0.4755
138.9866	-315.6400	-0.4751
139.1871	-315.6400	-0.4762
139.3883	-315.6400	-0.4757
139.5881	-315.6400	-0.4743
139.7905	-315.6400	-0.4762
139.9898	-315.6400	-0.4758
140.1916	-315.6400	-0.4756
140.3927	-315.6400	-0.4757
140.5926	-315.6400	-0.4772
140.7944	-315.6400	-0.4764
140.9937	-315.6400	-0.4744
141.1943	-315.6400	-0.4786
141.3963	-315.6400	-0.4719
141.5961	-315.6400	-0.4757
141.7966	-315.6400	-0.4753
141.9960	-315.6400	-0.4765
142.1960	-315.6400	-0.4729
142.3972	-315.6400	-0.4733
142.5974	-315.6400	-0.4744
142.7971	-315.6400	-0.4731
142.9974	-315.6400	-0.4731
143.1980	-315.6400	-0.4733
143.3992	-315.6400	-0.4736
143.5992	-315.6400	-0.4764
143.8000	-315.6400	-0.4732
144.0013	-315.6400	-0.4732
144.2013	-315.6400	-0.4734
144.4008	-315.6400	-0.4751
144.6008	-315.6400	-0.4718
144.8036	-315.6400	-0.4711
145.0035	-315.6400	-0.4725
145.2041	-315.6400	-0.4720
145.4056	-315.6400	-0.4736
145.6062	-315.6400	-0.4702
145.8061	-315.6400	-0.4738
146.0076	-315.6400	-0.4719
146.2067	-315.6400	-0.4752
146.4071	-315.6400	-0.4696
146.6072	-315.6400	-0.4711
146.8074	-315.6400	-0.4702
147.0077	-315.6400	-0.4719
147.2078	-315.6400	-0.4711
147.4092	-315.6400	-0.4730
147.6105	-315.6400	-0.4710
147.8097	-315.6400	-0.4699
148.0101	-315.6400	-0.4710
148.2115	-315.6400	-0.4691
148.4115	-315.6400	-0.4718
148.6133	-315.6400	-0.4717
148.8139	-315.6400	-0.4701
149.0152	-315.6400	-0.4682
149.2172	-315.6400	-0.4712
149.4173	-315.6400	-0.4705
149.6175	-315.6400	-0.4720
149.8179	-315.6400	-0.4682
150.0193	-315.6400	-0.4697
150.2189	-315.6400	-0.4699
150.4193	-315.6400	-0.4707
150.6190	-315.6400	-0.4699
150.8203	-315.6400	-0.4700
151.0201	-315.6400	-0.4700
151.2203	-315.6400	-0.4729
151.4209	-315.6400	-0.4674
151.6217	-315.6400	-0.4693
151.8247	-315.6400	-0.4723
152.0247	-315.6400	-0.4695
152.2263	-315.6400	-0.4690
152.4257	-315.6400	-0.4688
152.6269	-315.6400	-0.4681
152.8307	-315.6400	-0.4675
153.0294	-315.6400	-0.4666
153.2301	-315.6400	-0.4687
153.4314	-315.6400	-0.4688
153.6312	-315.6400	-0.4703
153.8313	-315.6400	-0.4693
154.0321	-315.6400	-0.4663
154.2332	-315.6400	-0.4685
154.4341	-315.6400	-0.4695
154.6342	-315.6400	-0.4693
154.8341	-315.6400	-0.4678
155.0343	-315.6400	-0.4688
155.2352	-315.6400	-0.4703
155.4351	-315.6400	-0.4702
155.6347	-315.6400	-0.4673
155.8368	-315.6400	-0.4674
156.0387	-315.6400	-0.4691
156.2388	-315.6400	-0.4692
156.4397	-315.6400	-0.4699
156.6393	-315.6400	-0.4697
156.8398	-315.6400	-0.4689
157.0397	-315.6400	-0.4670
157.2413	-315.6400	-0.4686
157.4413	-315.6400	-0.4679
157.6410	-315.6400	-0.4654
157.8426	-315.6400	-0.4662
158.0423	-315.6400	-0.4645
158.2433	-315.6400	-0.4666
158.4465	-315.6400	-0.4658
158.6468	-315.6400	-0.4680
158.8476	-315.6400	-0.4659
159.0472	-315.6400	-0.4668
159.2475	-315.6400	-0.4668
159.4486	-315.6400	-0.4666
159.6481	-315.6400	-0.4659
159.8483	-315.6400	-0.4667
160.0486	-315.6400	-0.4648
160.2481	-315.6400	-0.4671
160.4489	-315.6400	-0.4696
160.6490	-315.6400	-0.4679
160.8498	-315.6400	-0.4681
161.0502	-315.6400	-0.4666
161.2502	-315.6400	-0.4660
161.4499	-315.6400	-0.4644
161.6498	-315.6400	-0.4657
161.8509	-315.6400	-0.4638
162.0522	-315.6400	-0.4679
162.2528	-315.6400	-0.4652
162.4529	-315.6400	-0.4659
162.6528	-315.6400	-0.4656
162.8535	-315.6400	-0.4659
163.0531	-315.6400	-0.4651
163.2534	-315.6400	-0.4656
163.4542	-315.6400	-0.4652
163.6543	-315.6400	-0.4663
163.8546	-315.6400	-0.4677
164.0542	-315.6400	-0.4648
164.2539	-315.6400	-0.4626
164.4543	-315.6400	-0.4673
164.6545	-315.6400	-0.4632
164.8555	-315.6400	-0.4624
165.0563	-315.6400	-0.4677
165.2561	-315.6400	-0.4661
165.4568	-315.6400	-0.4663
165.6570	-315.6400	-0.4656
165.8588	-315.6400	-0.4646
166.0591	-315.6400	-0.4641
166.2598	-315.6400	-0.4615
166.4591	-315.6400	-0.4658
166.6590	-315.6400	-0.4646
166.8602	-315.6400	-0.4632
167.0603	-315.6400	-0.4641
167.2615	-315.6400	-0.4616
167.4618	-315.6400	-0.4641
167.6622	-315.6400	-0.4633
167.8620	-315.6400	-0.4632
168.0628	-315.6400	-0.4622
168.2618	-315.6400	-0.4639
168.4622	-315.6400	-0.4605
168.6621	-315.6400	-0.4625
168.8622	-315.6400	-0.4627
169.0642	-315.6400	-0.4643
169.2645	-315.6400	-0.4652
169.4646	-315.6400	-0.4633
169.6652	-315.6400	-0.4640
169.8660	-315.6400	-0.4651
170.0686	-315.6400	-0.4681
170.2686	-315.6400	-0.4618
170.4682	-315.6400	-0.4652
170.6679	-315.6400	-0.4622
170.8685	-315.6400	-0.4644
171.0690	-315.6400	-0.4633
171.2701	-315.6400	-0.4663
171.4714	-315.6400	-0.4629
171.6722	-315.6400	-0.4655
171.8724	-315.6400	-0.4643
172.0734	-315.6400	-0.4599
172.2732	-315.6400	-0.4614
172.4741	-315.6400	-0.4644
172.6758	-315.6400	-0.4639
172.8765	-315.6400	-0.4630
173.0766	-315.6400	-0.4634
173.2760	-315.6400	-0.4624
173.4777	-315.6400	-0.4623
173.6776	-315.6400	-0.4625
173.8774	-315.6400	-0.4620
174.0778	-315.6400	-0.4613
174.2784	-315.6400	-0.4635
174.4794	-315.6400	-0.4618
174.6796	-315.6400	-0.4632
174.8799	-315.6400	-0.4613
175.0815	-315.6400	-0.4615
175.2817	-315.6400	-0.4628
175.4828	-315.6400	-0.4643
175.6821	-315.6400	-0.4589
175.8822	-315.6400	-0.4629
176.0822	-315.6400	-0.4624
176.2848	-315.6400	-0.4630
176.4844	-315.6400	-0.4616
176.6847	-315.6400	-0.4624
176.8845	-315.6400	-0.4628
177.0843	-315.6400	-0.4620
177.2841	-315.6400	-0.4604
177.4845	-315.6400	-0.4612
177.6847	-315.6400	-0.4582
177.8844	-315.6400	-0.4609
178.0840	-315.6400	-0.4593
178.2854	-315.6400	-0.4603
178.4860	-315.6400	-0.4617
178.6863	-315.6400	-0.4612
178.8879	-315.6400	-0.4623
179.0886	-315.6400	-0.4606
179.2894	-315.6400	-0.4627
179.4895	-315.6400	-0.4608
179.6903	-315.6400	-0.4635
179.8916	-315.6400	-0.4617
180.0920	-315.6400	-0.4610
180.2923	-315.6400	-0.4606
180.4953	-315.6400	-0.4600
180.6956	-315.6400	-0.4592
180.8953	-315.6400	-0.4607
181.0953	-315.6400	-0.4569
181.2959	-315.6400	-0.4600
181.4953	-315.6400	-0.4611
181.6958	-315.6400	-0.4592
181.8953	-315.6400	-0.4585
182.0959	-315.6400	-0.4591
182.2961	-315.6400	-0.4589
182.4991	-315.6400	-0.4589
182.7005	-315.6400	-0.4592
182.9001	-315.6400	-0.4609
183.1008	-315.6400	-0.4611
183.3004	-315.6400	-0.4601
183.5005	-315.6400	-0.4596
183.7008	-315.6400	-0.4598
183.9006	-315.6400	-0.4592
184.1007	-315.6400	-0.4600
184.3005	-315.6400	-0.4593
184.5001	-315.6400	-0.4587
184.7004	-315.6400	-0.4573
184.9010	-315.6400	-0.4576
185.1013	-315.6400	-0.4591
185.3017	-315.6400	-0.4589
185.5023	-315.6400	-0.4584
185.7039	-315.6400	-0.4561
185.9048	-315.6400	-0.4575
186.1051	-315.6400	-0.4578
186.3053	-315.6400	-0.4586
186.5051	-315.6400	-0.4590
186.7084	-315.6400	-0.4582
186.9102	-315.6400	-0.4589
187.1117	-315.6400	-0.4586
187.3119	-315.6400	-0.4561
187.5125	-315.6400	-0.4583
187.7125	-315.6400	-0.4565
187.9137	-315.6400	-0.4561
188.1138	-315.6400	-0.4583
188.3145	-315.6400	-0.4598
188.5152	-315.6400	-0.4572
188.7166	-315.6400	-0.4595
188.9168	-315.6400	-0.4587
189.1172	-315.6400	-0.4592
189.3196	-315.6400	-0.4582
189.5185	-315.6400	-0.4567
189.7183	-315.6400	-0.4585
189.9190	-315.6400	-0.4562
190.1206	-315.6400	-0.4583
190.3222	-315.6400	-0.4594
190.5224	-315.6400	-0.4562
190.7224	-315.6400	-0.4550
190.9230	-315.6400	-0.4559
191.1222	-315.6400	-0.4586
191.3224	-315.6400	-0.4605
191.5226	-315.6400	-0.4562
191.7222	-315.6400	-0.4563
191.9237	-315.6400	-0.4556
192.1248	-315.6400	-0.4588
192.3245	-315.6400	-0.4573
192.5248	-315.6400	-0.4563
192.7251	-315.6400	-0.4552
192.9261	-315.6400	-0.4564
193.1261	-315.6400	-0.4563
193.3265	-315.6400	-0.4579
193.5263	-315.6400	-0.4574
193.7292	-315.6400	-0.4590
193.9294	-315.6400	-0.4573
194.1301	-315.6400	-0.4575
194.3295	-315.6400	-0.4585
194.5310	-315.6400	-0.4565
194.7312	-315.6400	-0.4562
194.9325	-315.6400	-0.4542
195.1334	-315.6400	-0.4576
195.3336	-315.6400	-0.4546
195.5342	-315.4800	-0.4572
195.7546	-314.4140	-0.4547
195.9544	-313.0810	-0.4535
196.1545	-311.7470	0.9704
196.3542	-310.4140	1.7723
196.5568	-309.0810	1.9304
196.7573	-307.7480	1.9570
196.9576	-306.4150	1.9249
197.1586	-305.0480	1.8591
197.3595	-303.7150	1.7872
197.5584	-302.3820	1.7115
197.7596	-301.0490	1.6434
197.9592	-299.7160	1.5741
198.1592	-298.3830	1.5161
198.3598	-297.0480	1.4588
198.5596	-295.7140	1.4157
198.7606	-294.3810	1.3690
198.9615	-293.0480	1.3349
199.1612	-291.7150	1.3080
199.3621	-290.3830	1.2784
199.5626	-289.0490	1.2576
199.7633	-287.6820	1.2395
199.9637	-286.3490	1.2214
200.1646	-285.0160	1.2089
200.3652	-283.6830	1.1966
200.5654	-282.3500	1.1892
200.7656	-281.0170	1.1770
200.9653	-279.6840	1.1766
201.1657	-278.3510	1.1644
201.3656	-277.0180	1.1666
201.5658	-275.6850	1.1592
201.7665	-274.3520	1.1636
201.9680	-272.9850	1.1646
202.1672	-271.6860	1.1699
202.3684	-270.3190	1.1904
202.5691	-268.9860	1.2040
202.7697	-267.6530	1.2243
202.9697	-266.3170	1.2455
203.1707	-265.6390	1.2642
203.3707	-265.6390	1.2843
203.5706	-265.6390	1.2799
203.7708	-265.6390	1.3003
203.9708	-265.6400	1.2990
204.1702	-265.6400	1.2999
204.3717	-265.6400	1.2996
204.5716	-265.6400	1.3004
204.7719	-265.6400	1.3026
204.9728	-265.6400	1.3017
205.1738	-265.6400	1.3019
205.3732	-265.6400	1.3016
205.5737	-265.6400	1.3018
205.7736	-265.4960	1.3013
205.9940	-264.4310	1.2989
206.1945	-263.0980	1.3006
206.3946	-261.7300	1.3136
206.5943	-260.3970	1.3249
206.7950	-259.0640	1.3423
206.9949	-257.7310	1.3597
207.1959	-256.3980	1.3799
207.3960	-255.0650	1.3885
207.5956	-253.7320	1.3865
207.7972	-252.3990	1.3886
207.9973	-251.0660	1.3883
208.1977	-249.7330	1.3910
208.3983	-248.4000	1.3926
208.5987	-247.0670	1.3960
208.7999	-245.6970	1.3968
209.0010	-244.3650	1.3998
209.2003	-243.0310	1.4031
209.4011	-241.6980	1.4016
209.6007	-240.3650	1.3971
209.8017	-239.0300	1.3967
210.0040	-237.6620	1.3969
210.2066	-236.3290	1.3959
210.4077	-234.9970	1.3960
210.6082	-233.6640	1.3934
210.8086	-232.3310	1.3947
211.0097	-230.9630	1.3927
211.2104	-229.6300	1.3943
211.4106	-228.2970	1.3906
211.6117	-226.9640	1.3912
211.8123	-225.6310	1.3938
212.0127	-224.2980	1.3940
212.2126	-222.9650	1.3900
212.4142	-221.6320	1.3898
212.6133	-220.2650	1.3886
212.8135	-218.9660	1.3897
213.0134	-217.5990	1.3920
213.2142	-216.3000	1.3875
213.4146	-215.6390	1.3888
213.6149	-215.6390	1.3904
213.8149	-215.6390	1.3818
214.0149	-215.6390	1.3891
214.2150	-215.6400	1.3906
214.4144	-215.6400	1.3899
214.6146	-215.6400	1.3893
214.8156	-215.6400	1.3898
215.0177	-215.6400	1.3874
215.2175	-215.6400	1.3902
215.4178	-215.6400	1.3885
215.6175	-215.6400	1.3862
215.8176	-215.6400	1.3872
216.0190	-215.6400	1.3910
216.2395	-215.0970	1.3899
216.4408	-213.7280	1.3871
216.6409	-212.3940	1.3901
216.8410	-211.0610	1.3892
217.0412	-209.7280	1.3892
217.2407	-208.3950	1.3890
217.4404	-207.0620	1.3920
217.6412	-205.7290	1.3863
217.8406	-204.3960	1.3863
218.0408	-203.0630	1.3875
218.2412	-201.7300	1.3882
218.4414	-200.3970	1.3884
218.6428	-199.0640	1.3859
218.8426	-197.7310	1.3858
219.0427	-196.3980	1.3892
219.2437	-195.0650	1.3862
219.4447	-193.6970	1.3862
219.6467	-192.3650	1.3883
219.8456	-191.0320	1.3874
220.0459	-189.6990	1.3865
220.2461	-188.3660	1.3874
220.4457	-187.0330	1.3875
220.6456	-185.7000	1.3865
220.8454	-184.3670	1.3843
221.0458	-183.0340	1.3862
221.2470	-181.7000	1.3878
221.4478	-180.3680	1.3858
221.6476	-179.0340	1.3860
221.8479	-177.7020	1.3872
222.0482	-176.3690	1.3842
222.2478	-175.0360	1.3829
222.4489	-173.7030	1.3871
222.6493	-172.3690	1.3860
222.8484	-171.0370	1.3845
223.0486	-169.7030	1.3828
223.2501	-168.3680	1.3853
223.4501	-167.0010	1.3846
223.6514	-165.6930	1.3819
223.8514	-165.6390	1.3848
224.0527	-165.6390	1.3848
224.2527	-165.6390	1.3655
224.4528	-165.6400	1.3835
224.6544	-165.6400	1.3830