File: Tinius-Olsen_Levitation_force/Measurements/20231204_1653GDBCOs2_sl6_5.txt
4/12/2023 4:53:29 pm
Time(s)	Displacement(mm)	Force(N)
0.0000	-266.9520	1.2120
0.4379	-269.4860	1.1948
0.8405	-272.1530	1.1686
1.2433	-274.8210	1.1712
1.6455	-277.5230	1.1764
2.0452	-280.1900	1.1894
2.4475	-282.8560	1.1987
2.8492	-285.5560	1.2242
3.2511	-288.2250	1.2408
3.6519	-290.8910	1.2609
4.0533	-293.5560	1.2863
4.4529	-296.2570	1.3015
4.8545	-298.9230	1.2934
5.2550	-301.5890	1.2448
5.6567	-304.2550	1.0908
6.0603	-306.9550	0.7327
6.4619	-309.6210	-0.0295
6.8641	-312.3210	-1.5212
7.2651	-314.9900	-4.2392
7.6656	-316.8010	-6.8622
8.0661	-316.8000	-6.7320
8.4677	-316.8000	-6.6799
8.8696	-316.8000	-6.6539
9.2705	-316.8000	-6.6326
9.6702	-316.8000	-6.6142
10.0735	-316.8000	-6.5967
10.4747	-316.8000	-6.5894
10.8761	-316.8000	-6.5812
11.2785	-316.8000	-6.5662
11.6780	-316.8000	-6.5614
12.0784	-316.8000	-6.5503
12.4789	-316.8000	-6.5445
12.8798	-316.8000	-6.5388
13.2805	-316.8000	-6.5351
13.6817	-316.8000	-6.5296
14.0829	-316.8000	-6.5255
14.4859	-316.8000	-6.5237
14.8860	-316.8000	-6.5142
15.2870	-316.8000	-6.5159
15.6882	-316.8000	-6.5124
16.0905	-316.8000	-6.5034
16.4924	-316.8000	-6.5043
16.8928	-316.8000	-6.4973
17.2920	-316.8000	-6.4930
17.6932	-316.8000	-6.4850
18.0936	-316.8000	-6.4854
18.4972	-316.8000	-6.4823
18.8991	-316.8000	-6.4796
19.3025	-316.8000	-6.4781
19.7037	-316.8000	-6.4753
20.1044	-316.8000	-6.4694
20.5044	-316.8000	-6.4685
20.9056	-316.8000	-6.4643
21.3062	-316.8000	-6.4698
21.7076	-316.8000	-6.4655
22.1081	-316.8000	-6.4652
22.5103	-316.8000	-6.4622
22.9113	-316.8000	-6.4596
23.3113	-316.8000	-6.4557
23.7118	-316.8000	-6.4553
24.1118	-316.8000	-6.4528
24.5119	-316.8000	-6.4489
24.9110	-316.8000	-6.4461
25.3118	-316.8000	-6.4478
25.7129	-316.8000	-6.4460
26.1131	-316.8000	-6.4426
26.5156	-316.8000	-6.4426
26.9162	-316.8000	-6.4388
27.3172	-316.8000	-6.4375
27.7186	-316.8000	-6.4360
28.1187	-316.8000	-6.4363
28.5191	-316.8000	-6.4337
28.9191	-316.8000	-6.4340
29.3198	-316.8000	-6.4337
29.7205	-316.8000	-6.4295
30.1224	-316.8000	-6.4284
30.5232	-316.8000	-6.4304
30.9250	-316.8000	-6.4208
31.3261	-316.8000	-6.4258
31.7274	-316.8000	-6.4222
32.1294	-316.8000	-6.4229
32.5325	-316.8000	-6.4230
32.9359	-316.8000	-6.4204
33.3369	-316.8000	-6.4170
33.7367	-316.8000	-6.4170
34.1379	-316.8000	-6.4172
34.5391	-316.8000	-6.4149
34.9414	-316.8000	-6.4083
35.3452	-316.8000	-6.4140
35.7463	-316.8000	-6.4084
36.1465	-316.8000	-6.4142
36.5482	-316.8000	-6.4086
36.9494	-316.8000	-6.4107
37.3510	-316.8000	-6.4104
37.7507	-316.8000	-6.4121
38.1502	-316.8000	-6.4067
38.5508	-316.8000	-6.4054
38.9529	-316.8000	-6.4043
39.3525	-316.8000	-6.4028
39.7536	-316.8000	-6.4016
40.1541	-316.8000	-6.4042
40.5576	-316.8000	-6.3981
40.9599	-316.8000	-6.4008
41.3591	-316.8000	-6.3970
41.7622	-316.8000	-6.3958
42.1639	-316.8000	-6.3935
42.5659	-316.8000	-6.3940
42.9653	-316.8000	-6.3922
43.3675	-316.8000	-6.3882
43.7690	-316.8000	-6.3918
44.1700	-316.8000	-6.3909
44.5711	-316.8000	-6.3907
44.9719	-316.8000	-6.3890
45.3715	-316.8000	-6.3898
45.7726	-316.8000	-6.3885
46.1731	-316.8000	-6.3863
46.5739	-316.8000	-6.3873
46.9749	-316.8000	-6.3862
47.3753	-316.8000	-6.3837
47.7752	-316.8000	-6.3849
48.1770	-316.8000	-6.3872
48.5766	-316.8000	-6.3814
48.9775	-316.8000	-6.3836
49.3786	-316.8000	-6.3766
49.7793	-316.8000	-6.3818
50.1806	-316.8000	-6.3808
50.5832	-316.8000	-6.3793
50.9852	-316.8000	-6.3791
51.3865	-316.8000	-6.3744
51.7870	-316.8000	-6.3759
52.1879	-316.8000	-6.3747
52.5890	-316.8000	-6.3736
52.9900	-316.8000	-6.3749
53.3920	-316.8000	-6.3732
53.7931	-316.8000	-6.3731
54.1933	-316.8000	-6.3708
54.5959	-316.8000	-6.3729
54.9952	-316.8000	-6.3694
55.3965	-316.8000	-6.3701
55.7977	-316.8000	-6.3706
56.1984	-316.8000	-6.3741
56.6004	-316.8000	-6.3710
57.0020	-316.8000	-6.3698
57.4031	-316.8000	-6.3701
57.8039	-316.8000	-6.3704
58.2053	-316.8000	-6.3713
58.6059	-316.8000	-6.3671
59.0065	-316.8000	-6.3676
59.4086	-316.8000	-6.3670
59.8102	-316.8000	-6.3652
60.2132	-316.8000	-6.3658
60.6143	-316.8000	-6.3621
61.0158	-316.8000	-6.3651
61.4166	-316.8000	-6.3623
61.8166	-316.8000	-6.3599
62.2166	-316.8000	-6.3543
62.6167	-316.8000	-6.3621
63.0202	-316.8000	-6.3591
63.4196	-316.8000	-6.3560
63.8207	-316.8000	-6.3547
64.2204	-316.8000	-6.3561
64.6203	-316.8000	-6.3553
65.0212	-316.8000	-6.3545
65.4215	-316.8000	-6.3537
65.8230	-316.8000	-6.3564
66.2238	-316.8000	-6.3468
66.6237	-316.8000	-6.3502
67.0243	-316.8000	-6.3500
67.4248	-316.8000	-6.3544
67.8261	-316.8000	-6.3469
68.2254	-316.8000	-6.3514
68.6265	-316.8000	-6.3486
69.0281	-316.8000	-6.3512
69.4291	-316.8000	-6.3479
69.8320	-316.8000	-6.3479
70.2338	-316.8000	-6.3491
70.6350	-316.8000	-6.3470
71.0365	-316.8000	-6.3494
71.4375	-316.8000	-6.3435
71.8400	-316.8000	-6.3455
72.2397	-316.8000	-6.3485
72.6411	-316.8000	-6.3447
73.0417	-316.8000	-6.3414
73.4429	-316.8000	-6.3458
73.8446	-316.8000	-6.3435
74.2452	-316.8000	-6.3449
74.6455	-316.8000	-6.3432
75.0458	-316.8000	-6.3423
75.4472	-316.8000	-6.3419
75.8494	-316.8000	-6.3404
76.2493	-316.8000	-6.3425
76.6512	-316.8000	-6.3385
77.0508	-316.8000	-6.3398
77.4515	-316.8000	-6.3384
77.8540	-316.8000	-6.3393
78.2567	-316.8000	-6.3381
78.6593	-316.8000	-6.3397
79.0588	-316.8000	-6.3400
79.4608	-316.8000	-6.3365
79.8608	-316.8000	-6.3367
80.2633	-316.8000	-6.3372
80.6642	-316.8000	-6.3380
81.0642	-316.8000	-6.3346
81.4646	-316.8000	-6.3377
81.8656	-316.8000	-6.3382
82.2668	-316.8000	-6.3334
82.6668	-316.8000	-6.3312
83.0689	-316.8000	-6.3346
83.4692	-316.8000	-6.3318
83.8691	-316.8000	-6.3314
84.2702	-316.8000	-6.3300
84.6723	-316.8000	-6.3331
85.0723	-316.8000	-6.3295
85.4722	-316.8000	-6.3305
85.8730	-316.8000	-6.3300
86.2736	-316.8000	-6.3272
86.6767	-316.8000	-6.3286
87.0802	-316.8000	-6.3267
87.4814	-316.8000	-6.3306
87.8806	-316.8000	-6.3267
88.2822	-316.8000	-6.3325
88.6829	-316.8000	-6.3288
89.0830	-316.8000	-6.3293
89.4844	-316.8000	-6.3260
89.8839	-316.8000	-6.3278
90.2856	-316.8000	-6.3228
90.6883	-316.8000	-6.3276
91.0887	-316.8000	-6.3274
91.4898	-316.8000	-6.3251
91.8905	-316.8000	-6.3241
92.2921	-316.8000	-6.3274
92.6915	-316.8000	-6.3221
93.0944	-316.8000	-6.3243
93.4943	-316.8000	-6.3271
93.8944	-316.8000	-6.3239
94.2963	-316.8000	-6.3239
94.6995	-316.8000	-6.3214
95.0998	-316.8000	-6.3210
95.5011	-316.8000	-6.3205
95.9026	-316.8000	-6.3163
96.3042	-316.8000	-6.3194
96.7046	-316.8000	-6.3159
97.1040	-316.8000	-6.3208
97.5065	-316.8000	-6.3171
97.9070	-316.8000	-6.3175
98.3077	-316.8000	-6.3146
98.7096	-316.8000	-6.3178
99.1118	-316.8000	-6.3170
99.5125	-316.8000	-6.3175
99.9127	-316.8000	-6.3198
100.3150	-316.8000	-6.3137
100.7174	-316.8000	-6.3140
101.1198	-316.8000	-6.3157
101.5219	-316.8000	-6.3126
101.9235	-316.8000	-6.3132
102.3238	-316.8000	-6.3145
102.7246	-316.8000	-6.3122
103.1253	-316.8000	-6.3132
103.5261	-316.8000	-6.3115
103.9261	-316.8000	-6.3130
104.3284	-316.8000	-6.3127
104.7297	-316.8000	-6.3103
105.1326	-316.8000	-6.3132
105.5337	-316.8000	-6.3130
105.9347	-316.8000	-6.3107
106.3370	-316.8000	-6.3099
106.7374	-316.8000	-6.3143
107.1369	-316.8000	-6.3090
107.5404	-316.8000	-6.3101
107.9415	-316.8000	-6.3096
108.3415	-316.8000	-6.3118
108.7408	-316.8000	-6.3080
109.1434	-316.8000	-6.3100
109.5456	-316.8000	-6.3096
109.9476	-316.8000	-6.3081
110.3505	-316.8000	-6.3057
110.7532	-316.8000	-6.3050
111.1554	-316.8000	-6.3032
111.5563	-316.8000	-6.3066
111.9580	-316.8000	-6.3068
112.3604	-316.8000	-6.3057
112.7604	-316.8000	-6.3062
113.1617	-316.8000	-6.3057
113.5609	-316.8000	-6.3048
113.9628	-316.8000	-6.3047
114.3639	-316.8000	-6.3081
114.7669	-316.8000	-6.3037
115.1690	-316.8000	-6.3052
115.5693	-316.8000	-6.3038
115.9693	-316.8000	-6.3035
116.3706	-316.8000	-6.3033
116.7718	-316.8000	-6.3026
117.1718	-316.8000	-6.3018
117.5738	-316.8000	-6.3019
117.9749	-316.8000	-6.3028
118.3772	-316.8000	-6.3036
118.7775	-316.8000	-6.3009
119.1795	-316.8000	-6.2977
119.5799	-316.8000	-6.3007
119.9814	-316.8000	-6.3027
120.3828	-316.8000	-6.2993
120.7824	-316.8000	-6.2984
121.1820	-316.8000	-6.2983
121.5832	-316.8000	-6.3000
121.9849	-316.8000	-6.2987
122.3870	-316.8000	-6.2986
122.7871	-316.8000	-6.2991
123.1872	-316.8000	-6.2993
123.5872	-316.8000	-6.2971
123.9875	-316.8000	-6.2960
124.3887	-316.8000	-6.2970
124.7885	-316.8000	-6.2985
125.1879	-316.8000	-6.2975
125.5900	-316.8000	-6.2950
125.9920	-316.8000	-6.2981
126.3943	-316.8000	-6.2939
126.7956	-316.8000	-6.2971
127.1960	-316.8000	-6.2942
127.5985	-316.8000	-6.2963
127.9980	-316.8000	-6.2917
128.4011	-316.8000	-6.2928
128.8024	-316.8000	-6.2928
129.2030	-316.8000	-6.2943
129.6036	-316.8000	-6.2931
130.0045	-316.8000	-6.2920
130.4056	-316.8000	-6.2938
130.8058	-316.8000	-6.2893
131.2053	-316.8000	-6.2901
131.6078	-316.8000	-6.2889
132.0072	-316.8000	-6.2869
132.4096	-316.8000	-6.2920
132.8113	-316.8000	-6.2922
133.2147	-316.8000	-6.2880
133.6150	-316.8000	-6.2923
134.0167	-316.8000	-6.2903
134.4173	-316.8000	-6.2883
134.8170	-316.8000	-6.2898
135.2183	-316.8000	-6.2928
135.6195	-316.8000	-6.2914
136.0194	-316.8000	-6.2910
136.4192	-316.8000	-6.2902
136.8193	-316.8000	-6.2881
137.2209	-316.8000	-6.2864
137.6216	-316.8000	-6.2876
138.0220	-316.8000	-6.2879
138.4242	-316.8000	-6.2876
138.8247	-316.8000	-6.2864
139.2250	-316.8000	-6.2808
139.6267	-316.8000	-6.2840
140.0277	-316.8000	-6.2837
140.4283	-316.8000	-6.2850
140.8293	-316.8000	-6.2866
141.2308	-316.8000	-6.2863
141.6317	-316.8000	-6.2865
142.0340	-316.8000	-6.2870
142.4361	-316.8000	-6.2843
142.8407	-316.8000	-6.2834
143.2418	-316.8000	-6.2830
143.6437	-316.8000	-6.2852
144.0450	-316.8000	-6.2818
144.4459	-316.8000	-6.2828
144.8466	-316.8000	-6.2815
145.2462	-316.8000	-6.2791
145.6489	-316.8000	-6.2812
146.0498	-316.8000	-6.2817
146.4495	-316.8000	-6.2794
146.8492	-316.8000	-6.2769
147.2500	-316.8000	-6.2793
147.6518	-316.8000	-6.2788
148.0532	-316.8000	-6.2793
148.4559	-316.8000	-6.2758
148.8555	-316.8000	-6.2775
149.2574	-316.8000	-6.2798
149.6607	-316.8000	-6.2775
150.0625	-316.8000	-6.2820
150.4648	-316.8000	-6.2787
150.8652	-316.8000	-6.2784
151.2669	-316.8000	-6.2753
151.6688	-316.8000	-6.2772
152.0715	-316.8000	-6.2749
152.4736	-316.8000	-6.2755
152.8757	-316.8000	-6.2813
153.2762	-316.8000	-6.2775
153.6774	-316.8000	-6.2783
154.0774	-316.8000	-6.2765
154.4774	-316.8000	-6.2780
154.8774	-316.8000	-6.2791
155.2786	-316.8000	-6.2789
155.6808	-316.8000	-6.2783
156.0805	-316.8000	-6.2740
156.4813	-316.8000	-6.2713
156.8836	-316.8000	-6.2724
157.2851	-316.8000	-6.2735
157.6848	-316.8000	-6.2746
158.0868	-316.8000	-6.2728
158.4881	-316.8000	-6.2745
158.8910	-316.8000	-6.2729
159.2908	-316.8000	-6.2707
159.6921	-316.8000	-6.2734
160.0929	-316.8000	-6.2740
160.4936	-316.8000	-6.2712
160.8938	-316.8000	-6.2720
161.2934	-316.8000	-6.2722
161.6969	-316.8000	-6.2731
162.0962	-316.8000	-6.2717
162.4975	-316.8000	-6.2697
162.8998	-316.8000	-6.2714
163.3003	-316.8000	-6.2714
163.7024	-316.8000	-6.2708
164.1040	-316.8000	-6.2724
164.5045	-316.8000	-6.2713
164.9064	-316.8000	-6.2701
165.3083	-316.8000	-6.2667
165.7109	-316.8000	-6.2694
166.1130	-316.8000	-6.2696
166.5122	-316.8000	-6.2679
166.9145	-316.8000	-6.2686
167.3154	-316.8000	-6.2705
167.7169	-316.8000	-6.2703
168.1184	-316.8000	-6.2641
168.5199	-316.8000	-6.2684
168.9217	-316.8000	-6.2688
169.3239	-316.8000	-6.2661
169.7252	-316.8000	-6.2656
170.1243	-316.8000	-6.2640
170.5270	-316.8000	-6.2658
170.9289	-316.8000	-6.2616
171.3300	-316.8000	-6.2659
171.7296	-316.8000	-6.2641
172.1299	-316.8000	-6.2611
172.5303	-316.8000	-6.2615
172.9312	-316.8000	-6.2641
173.3314	-316.8000	-6.2628
173.7323	-316.8000	-6.2639
174.1334	-316.8000	-6.2585
174.5370	-316.8000	-6.2668
174.9388	-316.8000	-6.2581
175.3405	-316.8000	-6.2637
175.7407	-316.8000	-6.2638
176.1430	-316.8000	-6.2627
176.5435	-316.8000	-6.2572
176.9453	-316.8000	-6.2647
177.3452	-316.8000	-6.2624
177.7455	-316.8000	-6.2597
178.1477	-316.8000	-6.2585
178.5476	-316.8000	-6.2636
178.9477	-316.8000	-6.2613
179.3477	-316.8000	-6.2609
179.7483	-316.8000	-6.2595
180.1477	-316.8000	-6.2623
180.5496	-316.8000	-6.2540
180.9504	-316.8000	-6.2623
181.3529	-316.8000	-6.2646
181.7549	-316.8000	-6.2581
182.1557	-316.8000	-6.2582
182.5554	-316.8000	-6.2575
182.9568	-316.8000	-6.2555
183.3577	-316.8000	-6.2548
183.7598	-316.8000	-6.2602
184.1598	-316.8000	-6.2570
184.5600	-316.8000	-6.2559
184.9598	-316.8000	-6.2579
185.3596	-316.8000	-6.2545
185.7601	-316.8000	-6.2523
186.1641	-316.8000	-6.2556
186.5635	-316.8000	-6.2521
186.9646	-316.8000	-6.2559
187.3653	-316.8000	-6.2556
187.7668	-316.8000	-6.2540
188.1675	-316.8000	-6.2572
188.5703	-316.8000	-6.2587
188.9731	-316.8000	-6.2565
189.3741	-316.8000	-6.2529
189.7751	-316.8000	-6.2522
190.1756	-316.8000	-6.2533
190.5775	-316.8000	-6.2509
190.9792	-316.8000	-6.2553
191.3805	-316.8000	-6.2538
191.7814	-316.8000	-6.2521
192.1842	-316.8000	-6.2492
192.5852	-316.8000	-6.2523
192.9850	-316.8000	-6.2549
193.3856	-316.8000	-6.2521
193.7876	-316.8000	-6.2511
194.1878	-316.8000	-6.2518
194.5891	-316.8000	-6.2500
194.9898	-316.8000	-6.2516
195.3912	-316.8000	-6.2489
195.7923	-316.8000	-6.2528
196.1932	-316.8000	-6.2501
196.5927	-316.8000	-6.2513
196.9955	-316.8000	-6.2465
197.3974	-316.8000	-6.2499
197.7975	-316.8000	-6.2511
198.2011	-316.8000	-6.2502
198.6035	-316.8000	-6.2510
199.0048	-316.8000	-6.2486
199.4047	-316.8000	-6.2489
199.8075	-316.8000	-6.2514
200.2102	-316.8000	-6.2475
200.6101	-316.8000	-6.2458
201.0120	-316.8000	-6.2471
201.4129	-316.8000	-6.2498
201.8139	-316.8000	-6.2507
202.2164	-316.8000	-6.2487
202.6166	-316.8000	-6.2480
203.0193	-316.8000	-6.2489
203.4202	-316.8000	-6.2456
203.8224	-316.8000	-6.2498
204.2241	-316.8000	-6.2470
204.6253	-316.8000	-6.2487
205.0257	-316.8000	-6.2474
205.4267	-316.8000	-6.2461
205.8277	-316.8000	-6.2442
206.2278	-316.8000	-6.2467
206.6294	-316.8000	-6.2452
207.0316	-316.8000	-6.2450
207.4327	-316.8000	-6.2438
207.8333	-316.8000	-6.2458
208.2341	-316.8000	-6.2451
208.6362	-316.8000	-6.2424
209.0382	-316.8000	-6.2440
209.4387	-316.8000	-6.2423
209.8400	-316.8000	-6.2453
210.2402	-316.8000	-6.2468
210.6399	-316.8000	-6.2394
211.0399	-316.8000	-6.2443
211.4402	-316.8000	-6.2451
211.8400	-316.8000	-6.2402
212.2412	-316.8000	-6.2441
212.6409	-316.8000	-6.2439
213.0445	-316.8000	-6.2400
213.4461	-316.8000	-6.2407
213.8480	-316.8000	-6.2423
214.2497	-316.8000	-6.2363
214.6521	-316.8000	-6.2433
215.0550	-316.8000	-6.2406
215.4547	-316.8000	-6.2425
215.8561	-316.8000	-6.2394
216.2585	-316.8000	-6.2421
216.6608	-316.8000	-6.2409
217.0613	-316.8000	-6.2400
217.4623	-316.8000	-6.2393
217.8629	-316.8000	-6.2413
218.2629	-316.8000	-6.2381
218.6631	-316.8000	-6.2380
219.0630	-316.8000	-6.2348
219.4636	-316.8000	-6.2419
219.8647	-316.8000	-6.2362
220.2651	-316.8000	-6.2398
220.6668	-316.8000	-6.2396
221.0683	-316.8000	-6.2414
221.4693	-316.8000	-6.2387
221.8704	-316.8000	-6.2350
222.2716	-316.8000	-6.2379
222.6722	-316.8000	-6.2354
223.0721	-316.8000	-6.2344
223.4739	-316.8000	-6.2366
223.8752	-316.8000	-6.2378
224.2774	-316.8000	-6.2377
224.6773	-316.8000	-6.2335
225.0775	-316.8000	-6.2356
225.4795	-316.8000	-6.2334
225.8801	-316.8000	-6.2351
226.2812	-316.8000	-6.2376
226.6826	-316.8000	-6.2400
227.0833	-316.8000	-6.2352
227.4855	-316.8000	-6.2334
227.8849	-316.8000	-6.2351
228.2863	-316.8000	-6.2353
228.6873	-316.8000	-6.2375
229.0874	-316.8000	-6.2360
229.4905	-316.8000	-6.2368
229.8904	-316.8000	-6.2337
230.2919	-316.8000	-6.2333
230.6934	-316.8000	-6.2354
231.0936	-316.8000	-6.2343
231.4941	-316.8000	-6.2328
231.8945	-316.8000	-6.2354
232.2952	-316.8000	-6.2359
232.6956	-316.8000	-6.2348
233.0978	-316.8000	-6.2318
233.4981	-316.8000	-6.2323
233.8981	-316.8000	-6.2306
234.2981	-316.8000	-6.2353
234.6981	-316.8000	-6.2318
235.0984	-316.8000	-6.2357
235.5010	-316.8000	-6.2311
235.9024	-316.8000	-6.2342
236.3029	-316.8000	-6.2306
236.7056	-316.8000	-6.2306
237.1068	-316.8000	-6.2312
237.5089	-316.8000	-6.2323
237.9101	-316.8000	-6.2312
238.3124	-316.8000	-6.2281
238.7132	-316.8000	-6.2314
239.1133	-316.8000	-6.2313
239.5131	-316.8000	-6.2274
239.9131	-316.8000	-6.2322
240.3134	-316.8000	-6.2317
240.7149	-316.8000	-6.2307
241.1160	-316.8000	-6.2255
241.5177	-316.8000	-6.2298
241.9176	-316.8000	-6.2360
242.3170	-316.8000	-6.2269
242.7186	-316.8000	-6.2250
243.1194	-316.8000	-6.2225
243.5204	-316.8000	-6.2275
243.9204	-316.8000	-6.2268
244.3203	-316.8000	-6.2290
244.7199	-316.8000	-6.2290
245.1221	-316.8000	-6.2300
245.5230	-316.8000	-6.2279
245.9250	-316.8000	-6.2272
246.3255	-316.8000	-6.2260
246.7260	-316.8000	-6.2279
247.1265	-316.8000	-6.2286
247.5268	-316.8000	-6.2283
247.9278	-316.8000	-6.2255
248.3283	-316.8000	-6.2254
248.7297	-316.8000	-6.2268
249.1316	-316.8000	-6.2252
249.5316	-316.8000	-6.2284
249.9328	-316.8000	-6.2297
250.3346	-316.8000	-6.2269
250.7346	-316.8000	-6.2264
251.1370	-316.8000	-6.2273
251.5398	-316.8000	-6.2242
251.9414	-316.8000	-6.2236
252.3435	-316.8000	-6.2254
252.7454	-316.8000	-6.2267
253.1464	-316.8000	-6.2220
253.5465	-316.8000	-6.2248
253.9482	-316.8000	-6.2223
254.3484	-316.8000	-6.2234
254.7483	-316.8000	-6.2269
255.1483	-316.8000	-6.2268
255.5483	-316.8000	-6.2252
255.9498	-316.8000	-6.2257
256.3497	-316.8000	-6.2235
256.7504	-316.8000	-6.2245
257.1531	-316.8000	-6.2210
257.5550	-316.8000	-6.2234
257.9549	-316.8000	-6.2211
258.3565	-316.8000	-6.2188
258.7562	-316.8000	-6.2254
259.1563	-316.8000	-6.2240
259.5576	-316.8000	-6.2223
259.9596	-316.8000	-6.2225
260.3606	-316.8000	-6.2187
260.7608	-316.8000	-6.2209
261.1620	-316.8000	-6.2215
261.5630	-316.8000	-6.2214
261.9643	-316.8000	-6.2195
262.3643	-316.8000	-6.2237
262.7672	-316.8000	-6.2183
263.1686	-316.8000	-6.2183
263.5686	-316.8000	-6.2183
263.9681	-316.8000	-6.2178
264.3708	-316.8000	-6.2205
264.7708	-316.8000	-6.2155
265.1709	-316.8000	-6.2231
265.5726	-316.8000	-6.2194
265.9731	-316.8000	-6.2189
266.3735	-316.8000	-6.2226
266.7746	-316.8000	-6.2192
267.1751	-316.8000	-6.2174
267.5770	-316.8000	-6.2126
267.9772	-316.8000	-6.2120
268.3785	-316.8000	-6.2178
268.7785	-316.8000	-6.2187
269.1797	-316.8000	-6.2171
269.5818	-316.8000	-6.2154
269.9839	-316.8000	-6.2174
270.3846	-316.8000	-6.2165
270.7859	-316.8000	-6.2133
271.1873	-316.8000	-6.2154
271.5906	-316.8000	-6.2163
271.9937	-316.8000	-6.2173
272.3955	-316.8000	-6.2132
272.7965	-316.8000	-6.2151
273.1996	-316.8000	-6.2166
273.6002	-316.8000	-6.2180
274.0007	-316.8000	-6.2176
274.4007	-316.8000	-6.2148
274.8002	-316.8000	-6.2182
275.2005	-316.8000	-6.2136
275.6009	-316.8000	-6.2146
276.0022	-316.8000	-6.2117
276.4024	-316.8000	-6.2168
276.8039	-316.8000	-6.2152
277.2046	-316.8000	-6.2168
277.6053	-316.8000	-6.2106
278.0068	-316.8000	-6.2108
278.4070	-316.8000	-6.2136
278.8092	-316.8000	-6.2131
279.2102	-316.8000	-6.2093
279.6097	-316.8000	-6.2160
280.0099	-316.8000	-6.2083
280.4111	-316.8000	-6.2164
280.8119	-316.8000	-6.2109
281.2125	-316.8000	-6.2133
281.6148	-316.8000	-6.2074
282.0161	-316.8000	-6.2111
282.4153	-316.8000	-6.2113
282.8153	-316.8000	-6.2134
283.2162	-316.8000	-6.2131
283.6171	-316.8000	-6.2121
284.0165	-316.8000	-6.2152
284.4169	-316.8000	-6.2103
284.8186	-316.8000	-6.2130
285.2193	-316.8000	-6.2106
285.6209	-316.8000	-6.2091
286.0233	-316.8000	-6.2091
286.4271	-316.8000	-6.2115
286.8293	-316.8000	-6.2111
287.2321	-316.8000	-6.2103
287.6325	-316.8000	-6.2091
288.0323	-316.8000	-6.2088
288.4350	-316.8000	-6.2105
288.8355	-316.8000	-6.2122
289.2386	-316.8000	-6.2149
289.6407	-316.8000	-6.2114
290.0439	-316.8000	-6.2109
290.4439	-316.8000	-6.2110
290.8461	-316.8000	-6.2090
291.2460	-316.8000	-6.2119
291.6462	-316.8000	-6.2108
292.0460	-316.8000	-6.2091
292.4460	-316.8000	-6.2100
292.8460	-316.8000	-6.2090
293.2478	-316.8000	-6.2055
293.6487	-316.8000	-6.2068
294.0513	-316.8000	-6.2113
294.4511	-316.8000	-6.2093
294.8535	-316.8000	-6.2079
295.2563	-316.8000	-6.2058
295.6560	-316.8000	-6.2055
296.0580	-316.8000	-6.2065
296.4598	-316.8000	-6.2057
296.8599	-316.8000	-6.2049
297.2624	-316.8000	-6.2065
297.6632	-316.8000	-6.2063
298.0630	-316.8000	-6.2014
298.4645	-316.8000	-6.2070
298.8655	-316.8000	-6.2061
299.2664	-316.8000	-6.2034
299.6660	-316.8000	-6.2064
300.0671	-316.8000	-6.2070
300.4667	-316.8000	-6.2068
300.8673	-316.8000	-6.2075
301.2682	-316.8000	-6.2056
301.6675	-316.8000	-6.2081
302.0698	-316.8000	-6.2072
302.4710	-316.8000	-6.2045
302.8720	-316.8000	-6.2037
303.2719	-316.8000	-6.2073
303.6729	-316.8000	-6.1991
304.0736	-316.8000	-6.2056
304.4749	-316.8000	-6.2063
304.8771	-316.8000	-6.2088
305.2765	-316.8000	-6.2047
305.6776	-316.8000	-6.2039
306.0805	-316.8000	-6.2055
306.4824	-316.8000	-6.2057
306.8835	-316.8000	-6.2044
307.2847	-316.8000	-6.2004
307.6853	-316.8000	-6.2011
308.0852	-316.8000	-6.1997
308.4863	-316.8000	-6.2021
308.8862	-316.8000	-6.2015
309.2868	-316.8000	-6.2033
309.6879	-316.8000	-6.2037
310.0890	-316.8000	-6.2022
310.4913	-316.8000	-6.2009
310.8931	-316.8000	-6.2017
311.2941	-316.8000	-6.2028
311.6942	-316.8000	-6.2013
312.0947	-316.8000	-6.2050
312.4951	-316.8000	-6.1987
312.8950	-316.8000	-6.2065
313.2951	-316.8000	-6.2016
313.6957	-316.8000	-6.2021
314.0970	-316.8000	-6.1990
314.4990	-316.8000	-6.2031
314.9003	-316.8000	-6.2029
315.3009	-316.8000	-6.1951
315.7021	-316.8000	-6.1989
316.1053	-316.8000	-6.1974
316.5061	-316.8000	-6.2005
316.9072	-316.8000	-6.2002
317.3084	-316.8000	-6.2022
317.7087	-316.8000	-6.1996
318.1101	-316.8000	-6.2028
318.5120	-316.8000	-6.1988
318.9121	-316.8000	-6.1977
319.3134	-316.8000	-6.2009
319.7140	-316.8000	-6.1995
320.1146	-316.8000	-6.2011
320.5158	-316.8000	-6.1983
320.9186	-316.8000	-6.2002
321.3188	-316.8000	-6.2002
321.7189	-316.8000	-6.1982
322.1190	-316.8000	-6.2006
322.5187	-316.8000	-6.1996
322.9189	-316.8000	-6.1951
323.3203	-316.8000	-6.1971
323.7212	-316.8000	-6.1940
324.1214	-316.8000	-6.1986
324.5206	-316.8000	-6.1958
324.9214	-316.8000	-6.1992
325.3212	-316.8000	-6.1983
325.7213	-316.8000	-6.1975
326.1237	-316.8000	-6.1991
326.5249	-316.8000	-6.1943
326.9267	-316.8000	-6.1943
327.3282	-316.8000	-6.1924
327.7285	-316.8000	-6.2003
328.1297	-316.8000	-6.1960
328.5312	-316.8000	-6.2001
328.9313	-316.8000	-6.1955
329.3313	-316.8000	-6.1961
329.7307	-316.8000	-6.2021
330.1325	-316.8000	-6.1924
330.5337	-316.8000	-6.1915
330.9342	-316.8000	-6.1937
331.3344	-316.8000	-6.1959
331.7349	-316.8000	-6.1986
332.1365	-316.8000	-6.1916
332.5365	-316.8000	-6.1929
332.9365	-316.8000	-6.1981
333.3375	-316.8000	-6.1949
333.7386	-316.8000	-6.1937
334.1391	-316.8000	-6.1954
334.5414	-316.8000	-6.1932
334.9434	-316.8000	-6.1906
335.3435	-316.8000	-6.1936
335.7429	-316.8000	-6.1948
336.1427	-316.8000	-6.1975
336.5467	-316.8000	-6.1958
336.9466	-316.8000	-6.1921
337.3460	-316.8000	-6.1938
337.7467	-316.8000	-6.1962
338.1487	-316.8000	-6.1932
338.5487	-316.8000	-6.1961
338.9490	-316.8000	-6.1948
339.3491	-316.8000	-6.1938
339.7491	-316.8000	-6.1915
340.1506	-316.8000	-6.1911
340.5508	-316.8000	-6.1970
340.9512	-316.8000	-6.1909
341.3515	-316.8000	-6.1921
341.7515	-316.8000	-6.1919
342.1525	-316.8000	-6.1920
342.5530	-316.8000	-6.1898
342.9556	-316.8000	-6.1918
343.3564	-316.8000	-6.1911
343.7562	-316.8000	-6.1916
344.1574	-316.8000	-6.1914
344.5588	-316.8000	-6.1925
344.9592	-316.8000	-6.1908
345.3609	-316.8000	-6.1895
345.7609	-316.8000	-6.1928
346.1629	-316.8000	-6.1906
346.5630	-316.8000	-6.1908
346.9643	-316.8000	-6.1911
347.3668	-316.8000	-6.1872
347.7664	-316.8000	-6.1889
348.1670	-316.8000	-6.1899
348.5692	-316.8000	-6.1882
348.9702	-316.8000	-6.1867
349.3716	-316.8000	-6.1864
349.7710	-316.8000	-6.1885
350.1716	-316.8000	-6.1876
350.5713	-316.8000	-6.1861
350.9712	-316.8000	-6.1861
351.3716	-316.8000	-6.1855
351.7716	-316.8000	-6.1869
352.1714	-316.8000	-6.1889
352.5748	-316.8000	-6.1899
352.9746	-316.8000	-6.1869
353.3750	-316.8000	-6.1879
353.7751	-316.8000	-6.1853
354.1776	-316.8000	-6.1859
354.5783	-316.8000	-6.1855
354.9791	-316.8000	-6.1881
355.3793	-316.8000	-6.1847
355.7792	-316.8000	-6.1900
356.1793	-316.8000	-6.1898
356.5792	-316.8000	-6.1873
356.9792	-316.8000	-6.1874
357.3800	-316.8000	-6.1832
357.7811	-316.8000	-6.1850
358.1830	-316.8000	-6.1807
358.5854	-316.8000	-6.1806
358.9863	-316.8000	-6.1822
359.3876	-316.8000	-6.1820
359.7880	-316.8000	-6.1828
360.1893	-316.8000	-6.1870
360.5893	-316.8000	-6.1863
360.9893	-316.8000	-6.1845
361.3914	-316.8000	-6.1858
361.7916	-316.8000	-6.1816
362.1915	-316.8000	-6.1851
362.5916	-316.8000	-6.1854
362.9926	-316.8000	-6.1828
363.3923	-316.8000	-6.1862
363.7939	-316.8000	-6.1830
364.1942	-316.8000	-6.1829
364.5952	-316.8000	-6.1814
364.9971	-316.8000	-6.1803
365.3972	-316.8000	-6.1823
365.7979	-316.8000	-6.1819
366.1979	-316.8000	-6.1852
366.5972	-316.8000	-6.1833
366.9976	-316.8000	-6.1823
367.3979	-316.8000	-6.1823
367.7972	-316.8000	-6.1859
368.1975	-316.8000	-6.1858
368.5982	-316.8000	-6.1801
368.9993	-316.8000	-6.1778
369.3994	-316.8000	-6.1816
369.7993	-316.8000	-6.1850
370.1993	-316.8000	-6.1853
370.5995	-316.8000	-6.1788
370.9993	-316.8000	-6.1796
371.3994	-316.8000	-6.1833
371.7993	-316.8000	-6.1810
372.2016	-316.8000	-6.1802
372.6028	-316.8000	-6.1821
373.0032	-316.8000	-6.1821
373.4048	-316.8000	-6.1770
373.8070	-316.8000	-6.1804
374.2070	-316.8000	-6.1771
374.6068	-316.8000	-6.1830
375.0071	-316.8000	-6.1784
375.4094	-316.8000	-6.1817
375.8094	-316.8000	-6.1791
376.2107	-316.8000	-6.1760
376.6115	-316.8000	-6.1789
377.0117	-316.8000	-6.1779
377.4118	-316.8000	-6.1801
377.8119	-316.8000	-6.1768
378.2125	-316.8000	-6.1741
378.6141	-316.8000	-6.1777
379.0170	-316.8000	-6.1752
379.4168	-316.8000	-6.1799
379.8182	-316.8000	-6.1772
380.2200	-316.8000	-6.1766
380.6195	-316.8000	-6.1766
381.0195	-316.8000	-6.1822
381.4219	-316.8000	-6.1786
381.8217	-316.8000	-6.1755
382.2214	-316.8000	-6.1742
382.6218	-316.8000	-6.1736
383.0215	-316.8000	-6.1755
383.4218	-316.8000	-6.1742
383.8219	-316.8000	-6.1712
384.2218	-316.8000	-6.1744
384.6234	-316.8000	-6.1772
385.0239	-316.8000	-6.1728
385.4249	-316.8000	-6.1743
385.8272	-316.8000	-6.1736
386.2296	-316.8000	-6.1729
386.6315	-316.8000	-6.1737
387.0316	-316.8000	-6.1692
387.4320	-316.8000	-6.1744
387.8319	-316.8000	-6.1766
388.2326	-316.8000	-6.1730
388.6330	-316.8000	-6.1760
389.0336	-316.8000	-6.1756
389.4344	-316.8000	-6.1709
389.8349	-316.8000	-6.1744
390.2359	-316.8000	-6.1740
390.6372	-316.8000	-6.1764
391.0377	-316.8000	-6.1749
391.4395	-316.8000	-6.1718
391.8395	-316.8000	-6.1746
392.2396	-316.8000	-6.1745
392.6394	-316.8000	-6.1737
393.0403	-316.8000	-6.1704
393.4408	-316.8000	-6.1736
393.8413	-316.8000	-6.1728
394.2418	-316.8000	-6.1714
394.6417	-316.8000	-6.1692
395.0429	-316.8000	-6.1707
395.4442	-316.8000	-6.1683
395.8448	-316.8000	-6.1730
396.2462	-316.8000	-6.1704
396.6465	-316.8000	-6.1711
397.0475	-316.8000	-6.1715
397.4491	-316.8000	-6.1703
397.8487	-316.8000	-6.1711
398.2490	-316.8000	-6.1700
398.6485	-316.8000	-6.1696
399.0496	-316.8000	-6.1670
399.4497	-316.8000	-6.1662
399.8496	-316.8000	-6.1684
400.2495	-316.8000	-6.1678
400.6521	-316.8000	-6.1702
401.0521	-316.8000	-6.1715
401.4521	-316.8000	-6.1692
401.8520	-316.8000	-6.1666
402.2521	-316.8000	-6.1666
402.6543	-316.8000	-6.1695
403.0553	-316.8000	-6.1672
403.4559	-316.8000	-6.1677
403.8583	-316.8000	-6.1654
404.2582	-316.8000	-6.1696
404.6579	-316.8000	-6.1690
405.0575	-316.8000	-6.1643
405.4599	-316.8000	-6.1666
405.8628	-316.8000	-6.1687
406.2633	-316.8000	-6.1684
406.6645	-316.8000	-6.1680
407.0666	-316.8000	-6.1674
407.4695	-316.8000	-6.1634
407.8697	-316.8000	-6.1662
408.2707	-316.8000	-6.1640
408.6714	-316.8000	-6.1624
409.0720	-316.8000	-6.1641
409.4722	-316.8000	-6.1651
409.8718	-316.8000	-6.1671
410.2721	-316.8000	-6.1646
410.6719	-316.8000	-6.1647
411.0718	-316.8000	-6.1724
411.4722	-316.8000	-6.1649
411.8725	-316.8000	-6.1683
412.2724	-316.8000	-6.1654
412.6744	-316.8000	-6.1660
413.0759	-316.8000	-6.1658
413.4774	-316.8000	-6.1651
413.8796	-316.8000	-6.1625
414.2798	-316.8000	-6.1659
414.6805	-316.8000	-6.1632
415.0822	-316.8000	-6.1650
415.4845	-316.8000	-6.1665
415.8848	-316.8000	-6.1668
416.2868	-316.8000	-6.1645
416.6870	-316.8000	-6.1589
417.0882	-316.8000	-6.1605
417.4879	-316.8000	-6.1644
417.8889	-316.8000	-6.1627
418.2899	-316.8000	-6.1661
418.6898	-316.8000	-6.1629
419.0925	-316.8000	-6.1622
419.4935	-316.8000	-6.1640
419.8942	-316.8000	-6.1671
420.2967	-316.8000	-6.1669
420.6975	-316.8000	-6.1591
421.0981	-316.8000	-6.1643
421.4986	-316.8000	-6.1673
421.9013	-316.8000	-6.1647
422.3021	-316.8000	-6.1631
422.7021	-316.8000	-6.1594
423.1023	-316.8000	-6.1628
423.5021	-316.8000	-6.1601
423.9022	-316.8000	-6.1609
424.3023	-316.8000	-6.1596
424.7021	-316.8000	-6.1590
425.1032	-316.8000	-6.1638
425.5041	-316.8000	-6.1561
425.9046	-316.8000	-6.1594
426.3053	-316.8000	-6.1552
426.7071	-316.8000	-6.1576
427.1081	-316.8000	-6.1580
427.5079	-316.8000	-6.1591
427.9089	-316.8000	-6.1620
428.3095	-316.8000	-6.1573
428.7093	-316.8000	-6.1630
429.1093	-316.8000	-6.1588
429.5090	-316.8000	-6.1591
429.9096	-316.8000	-6.1632
430.3112	-316.8000	-6.1598
430.7121	-316.8000	-6.1579
431.1134	-316.8000	-6.1567
431.5146	-316.8000	-6.1560
431.9162	-316.8000	-6.1565
432.3160	-316.8000	-6.1574
432.7175	-316.8000	-6.1581
433.1169	-316.8000	-6.1582
433.5174	-316.8000	-6.1580
433.9206	-316.8000	-6.1558
434.3206	-316.8000	-6.1538
434.7222	-316.8000	-6.1608
435.1223	-316.8000	-6.1565
435.5224	-316.8000	-6.1574
435.9244	-316.8000	-6.1513
436.3257	-316.8000	-6.1585
436.7277	-316.8000	-6.1541
437.1277	-316.8000	-6.1558
437.5287	-316.8000	-6.1596
437.9300	-316.8000	-6.1509
438.3305	-316.8000	-6.1549
438.7300	-316.8000	-6.1586
439.1305	-316.8000	-6.1531
439.5324	-316.8000	-6.1533
439.9324	-316.8000	-6.1552
440.3339	-316.8000	-6.1530
440.7365	-316.8000	-6.1542
441.1376	-316.8000	-6.1518
441.5391	-316.8000	-6.1535
441.9396	-316.8000	-6.1530
442.3400	-316.8000	-6.1545
442.7411	-316.8000	-6.1514
443.1433	-316.8000	-6.1537
443.5436	-316.8000	-6.1537
443.9431	-316.8000	-6.1528
444.3431	-316.8000	-6.1537
444.7446	-316.8000	-6.1550
445.1447	-316.8000	-6.1526
445.5457	-316.8000	-6.1566
445.9479	-316.8000	-6.1530
446.3480	-316.8000	-6.1491
446.7488	-316.8000	-6.1508
447.1494	-316.8000	-6.1544
447.5491	-316.8000	-6.1439
447.9511	-316.8000	-6.1536
448.3510	-316.8000	-6.1516
448.7514	-316.8000	-6.1529
449.1525	-316.8000	-6.1547
449.5525	-316.8000	-6.1572
449.9524	-316.8000	-6.1518
450.3541	-316.8000	-6.1541
450.7542	-316.8000	-6.1535
451.1551	-316.8000	-6.1513
451.5551	-316.8000	-6.1478
451.9554	-316.8000	-6.1521
452.3548	-316.8000	-6.1509
452.7553	-316.8000	-6.1510
453.1575	-316.8000	-6.1544
453.5571	-316.8000	-6.1523
453.9599	-316.8000	-6.1486
454.3606	-316.8000	-6.1512
454.7617	-316.8000	-6.1532
455.1609	-316.8000	-6.1519
455.5625	-316.8000	-6.1481
455.9622	-316.8000	-6.1530
456.3633	-316.8000	-6.1554
456.7638	-316.8000	-6.1492
457.1643	-316.8000	-6.1524
457.5669	-316.8000	-6.1501
457.9683	-316.8000	-6.1518
458.3685	-316.8000	-6.1514
458.7696	-316.8000	-6.1511
459.1698	-316.8000	-6.1498
459.5695	-316.8000	-6.1464
459.9702	-316.8000	-6.1505
460.3728	-316.8000	-6.1476
460.7721	-316.8000	-6.1516
461.1741	-316.8000	-6.1489
461.5749	-316.8000	-6.1484
461.9759	-316.8000	-6.1471
462.3777	-316.8000	-6.1488
462.7776	-316.8000	-6.1498
463.1795	-316.8000	-6.1447
463.5802	-316.8000	-6.1526
463.9826	-316.8000	-6.1454
464.3836	-316.8000	-6.1463
464.7849	-316.8000	-6.1484
465.1864	-316.8000	-6.1470
465.5877	-316.8000	-6.1481
465.9884	-316.8000	-6.1465
466.3913	-316.8000	-6.1484
466.7923	-316.8000	-6.1464
467.1928	-316.8000	-6.1477
467.5925	-316.8000	-6.1405
467.9944	-316.8000	-6.1445
468.4163	-314.8850	-6.1465
468.8175	-312.2180	-6.1457
469.2186	-309.5530	-6.1254
469.6196	-306.8860	-2.0220
470.0199	-304.2210	0.1068
470.4200	-301.5550	1.0296
470.8216	-298.8540	1.4000
471.2227	-296.1860	1.5050
471.6248	-293.5180	1.5124
472.0274	-290.8170	1.4728
472.4269	-288.1850	1.4208
472.8279	-285.4850	1.3632
473.2278	-282.8190	1.3174
473.6280	-280.1530	1.2810
474.0281	-277.4850	1.2528
474.4289	-274.8160	1.2139
474.8303	-272.1480	1.2059
475.2300	-269.4820	1.2022
475.6311	-266.8460	1.2242
476.0327	-266.7990	1.2425
476.4345	-266.8000	1.2784
476.8342	-266.8000	1.2994
477.2562	-265.5670	1.3111
477.6568	-262.9000	1.3053
478.0560	-260.2340	1.2939
478.4568	-257.5680	1.3211
478.8587	-254.9020	1.3636
479.2585	-252.2350	1.3857
479.6585	-249.5690	1.3836
480.0590	-246.9010	1.3812
480.4594	-244.2350	1.3795
480.8613	-241.5350	1.3902
481.2646	-238.8350	1.3960
481.6650	-236.2030	1.3794
482.0657	-233.5030	1.3724
482.4683	-230.8370	1.3785
482.8684	-228.1710	1.3781
483.2699	-225.5020	1.3720
483.6715	-222.8000	1.3714
484.0727	-220.1340	1.3723
484.4728	-217.4650	1.3726
484.8733	-216.7990	1.3735
485.2760	-216.7990	1.3708
485.6758	-216.8000	1.3724