File: Tinius-Olsen_Levitation_force/Measurements/20231204_1051cut1_lowN_2.txt
4/12/2023 10:51:51 am
Time(s)	Displacement(mm)	Force(N)
0.0000	49.8480	1.3167
0.3425	47.9630	1.3316
0.6428	45.9800	1.3305
0.9423	43.9630	1.3275
1.2423	41.9810	1.3307
1.5433	39.9640	1.3317
1.8451	37.9480	1.3323
2.1459	35.9650	1.3321
2.4465	33.9460	1.3326
2.7481	31.9300	1.3260
3.0485	29.9470	1.3348
3.3481	27.9310	1.3309
3.6493	25.9480	1.3336
3.9493	23.9290	1.3309
4.2493	21.9470	1.3335
4.5491	19.9300	1.3346
4.8493	17.9450	1.3324
5.1493	15.9290	1.3334
5.4493	13.9460	1.3314
5.7493	11.9270	1.3324
6.0498	9.9440	1.3310
6.3493	7.9280	1.3339
6.6494	5.9460	1.3290
6.9502	3.9290	1.3336
7.2515	1.9120	1.3324
7.5513	-0.1030	1.3331
7.8516	-2.0860	1.3294
8.1517	-4.0680	1.3329
8.4528	-6.0850	1.3333
8.7535	-8.1040	1.3294
9.0538	-10.0860	1.3378
9.3557	-12.1030	1.3296
9.6570	-14.1190	1.3316
9.9577	-16.1360	1.3286
10.2579	-18.1180	1.3301
10.5594	-20.1370	1.3318
10.8594	-22.1200	1.3321
11.1593	-24.1370	1.3325
11.4594	-26.1210	1.3359
11.7602	-28.1380	1.3293
12.0615	-30.1570	1.3318
12.3623	-32.1730	1.3329
12.6622	-34.1560	1.3300
12.9649	-36.1730	1.3310
13.2651	-38.1550	1.3319
13.5646	-40.1720	1.3278
13.8643	-42.1540	1.3308
14.1647	-44.1730	1.3327
14.4659	-46.1900	1.3300
14.7657	-48.1720	1.3304
15.0668	-50.1890	1.3306
15.3668	-52.1710	1.3329
15.6667	-54.1900	1.3285
15.9669	-56.2070	1.3308
16.2671	-58.1890	1.3271
16.5679	-60.2060	1.3284
16.8681	-62.1880	1.3338
17.1682	-64.2050	1.3316
17.4691	-66.1870	1.3310
17.7690	-68.2040	1.3336
18.0691	-70.1860	1.3334
18.3692	-72.2030	1.3317
18.6692	-74.1850	1.3318
18.9696	-76.2020	1.3340
19.2695	-78.2190	1.3332
19.5695	-80.2010	1.3313
19.8695	-82.2180	1.3309
20.1711	-84.2000	1.3303
20.4722	-86.2170	1.3327
20.7717	-88.2330	1.3306
21.0718	-90.2160	1.3357
21.3720	-92.1980	1.3322
21.6719	-94.2170	1.3309
21.9719	-96.2340	1.3319
22.2720	-98.2160	1.3293
22.5716	-100.2330	1.3334
22.8736	-102.2150	1.3354
23.1738	-104.2320	1.3333
23.4750	-106.2480	1.3321
23.7752	-108.2310	1.3306
24.0755	-110.2470	1.3335
24.3758	-112.2320	1.3294
24.6776	-114.2490	1.3306
24.9779	-116.2660	1.3308
25.2777	-118.2480	1.3325
25.5802	-120.2640	1.3298
25.8809	-122.2810	1.3286
26.1821	-124.2660	1.3338
26.4824	-126.2820	1.3370
26.7835	-128.2990	1.3321
27.0845	-130.3160	1.3333
27.3862	-132.2980	1.3319
27.6868	-134.3150	1.3333
27.9872	-136.2970	1.3349
28.2880	-138.3160	1.3343
28.5881	-140.3330	1.3294
28.8885	-142.3160	1.3333
29.1897	-144.3320	1.3324
29.4897	-146.3480	1.3270
29.7897	-148.3310	1.3349
30.0897	-150.3470	1.3309
30.3903	-152.3300	1.3307
30.6898	-154.3460	1.3292
30.9898	-156.3290	1.3344
31.2904	-158.3450	1.3374
31.5898	-160.3280	1.3352
31.8898	-162.3440	1.3305
32.1913	-164.3270	1.3425
32.4918	-166.3430	1.3333
32.7922	-168.3600	1.3322
33.0922	-170.3420	1.3299
33.3921	-172.3590	1.3334
33.6918	-174.3420	1.3320
33.9921	-176.3580	1.3344
34.2927	-178.3750	1.3315
34.5940	-180.3570	1.3311
34.8951	-182.3740	1.3271
35.1954	-184.3560	1.3314
35.4952	-186.3730	1.3273
35.7948	-188.3550	1.3306
36.0949	-190.3740	1.3312
36.3948	-192.3570	1.3322
36.6949	-194.3730	1.3348
36.9951	-196.3900	1.3386
37.2953	-198.3730	1.3347
37.5959	-200.3890	1.3334
37.8962	-202.3710	1.3335
38.1962	-204.3880	1.3316
38.4962	-206.3700	1.3323
38.7965	-208.3870	1.3312
39.0960	-210.3690	1.3324
39.3960	-212.3860	1.3297
39.6962	-214.3680	1.3314
39.9956	-216.3850	1.3318
40.2971	-218.3670	1.3349
40.5983	-220.3840	1.3323
40.8977	-222.4010	1.3319
41.1985	-224.3830	1.3353
41.4981	-226.4000	1.3292
41.7978	-228.3830	1.3340
42.0984	-230.3990	1.3352
42.3981	-232.3810	1.3324
42.6998	-234.3980	1.3312
42.9999	-236.4140	1.3339
43.2999	-238.3970	1.3327
43.5999	-240.4130	1.3377
43.8999	-242.3960	1.3324
44.2006	-244.4120	1.3330
44.5005	-246.3950	1.3326
44.7999	-248.4110	1.3324
45.0999	-250.3960	1.3276
45.4002	-252.4130	1.3338
45.7016	-254.3950	1.3255
46.0038	-256.4120	1.3311
46.3039	-258.4310	1.3320
46.6055	-260.4470	1.3315
46.9049	-262.4300	1.3281
47.2047	-264.4470	1.3296
47.5058	-266.4630	1.3276
47.8071	-268.4460	1.3205
48.1073	-270.4620	1.3217
48.4094	-272.4790	1.3185
48.7088	-274.4610	1.3158
49.0100	-276.4780	1.3126
49.3100	-278.4600	1.3092
49.6114	-280.4770	1.3019
49.9114	-282.4590	1.2932
50.2118	-284.4760	1.2802
50.5125	-286.4930	1.2634
50.8121	-288.4750	1.2487
51.1125	-290.4940	1.2212
51.4125	-292.4760	1.1902
51.7124	-294.4930	1.1346
52.0125	-296.4750	1.0705
52.3123	-298.4920	0.9766
52.6133	-300.5090	0.8536
52.9150	-302.4910	0.6717
53.2169	-304.5100	0.4308
53.5177	-306.5270	0.0766
53.8170	-308.5090	-0.4132
54.1178	-310.5260	-1.1254
54.4178	-312.5080	-2.1469
54.7178	-314.5270	-3.6755
55.0176	-316.0010	-5.2988
55.3185	-316.0000	-4.5098
55.6184	-316.0000	-4.2583
55.9194	-316.0000	-4.1191
56.2209	-316.0000	-4.0214
56.5223	-316.0000	-3.9559
56.8225	-316.0000	-3.9052
57.1226	-316.0000	-3.8621
57.4226	-316.0000	-3.8340
57.7233	-316.0000	-3.7976
58.0235	-316.0000	-3.7824
58.3237	-316.0000	-3.7552
58.6238	-316.0000	-3.7415
58.9230	-316.0000	-3.7247
59.2237	-316.0000	-3.7040
59.5231	-316.0000	-3.6968
59.8231	-316.0000	-3.6864
60.1237	-316.0000	-3.6794
60.4245	-316.0000	-3.6557
60.7241	-316.0000	-3.6546
61.0241	-316.0000	-3.6460
61.3244	-316.0000	-3.6378
61.6245	-316.0000	-3.6393
61.9244	-316.0000	-3.6259
62.2251	-316.0000	-3.6280
62.5255	-316.0000	-3.6128
62.8253	-316.0000	-3.6069
63.1290	-316.0000	-3.5968
63.4289	-316.0000	-3.6017
63.7286	-316.0000	-3.5913
64.0285	-316.0000	-3.5830
64.3300	-316.0000	-3.5735
64.6295	-316.0000	-3.5712
64.9296	-316.0000	-3.5730
65.2303	-316.0000	-3.5731
65.5303	-316.0000	-3.5592
65.8303	-316.0000	-3.5560
66.1302	-316.0000	-3.5530
66.4304	-316.0000	-3.5521
66.7303	-316.0000	-3.5435
67.0318	-316.0000	-3.5416
67.3323	-316.0000	-3.5415
67.6324	-316.0000	-3.5297
67.9324	-316.0000	-3.5394
68.2339	-316.0000	-3.5274
68.5340	-316.0000	-3.5315
68.8332	-316.0000	-3.5261
69.1355	-316.0000	-3.5189
69.4363	-316.0000	-3.5232
69.7365	-316.0000	-3.5144
70.0371	-316.0000	-3.5101
70.3378	-316.0000	-3.5094
70.6378	-316.0000	-3.5043
70.9379	-316.0000	-3.4976
71.2376	-316.0000	-3.4972
71.5381	-316.0000	-3.4976
71.8382	-316.0000	-3.5010
72.1398	-316.0000	-3.4854
72.4392	-316.0000	-3.4842
72.7405	-316.0000	-3.4852
73.0405	-316.0000	-3.4785
73.3419	-316.0000	-3.4671
73.6431	-316.0000	-3.4732
73.9426	-316.0000	-3.4727
74.2427	-316.0000	-3.4693
74.5443	-316.0000	-3.4570
74.8448	-316.0000	-3.4679
75.1447	-316.0000	-3.4637
75.4448	-316.0000	-3.4572
75.7453	-316.0000	-3.4546
76.0460	-316.0000	-3.4628
76.3465	-316.0000	-3.4652
76.6483	-316.0000	-3.4648
76.9486	-316.0000	-3.4580
77.2490	-316.0000	-3.4606
77.5495	-316.0000	-3.4637
77.8494	-316.0000	-3.4484
78.1502	-316.0000	-3.4534
78.4505	-316.0000	-3.4454
78.7522	-316.0000	-3.4467
79.0517	-316.0000	-3.4435
79.3529	-316.0000	-3.4336
79.6530	-316.0000	-3.4377
79.9530	-316.0000	-3.4390
80.2530	-316.0000	-3.4270
80.5529	-316.0000	-3.4292
80.8526	-316.0000	-3.4230
81.1525	-316.0000	-3.4242
81.4529	-316.0000	-3.4221
81.7527	-316.0000	-3.4176
82.0530	-316.0000	-3.4108
82.3529	-316.0000	-3.4155
82.6529	-316.0000	-3.4105
82.9528	-316.0000	-3.4076
83.2535	-316.0000	-3.4056
83.5539	-316.0000	-3.4018
83.8540	-316.0000	-3.4005
84.1563	-316.0000	-3.3974
84.4555	-316.0000	-3.3978
84.7567	-316.0000	-3.3962
85.0570	-316.0000	-3.3807
85.3571	-316.0000	-3.3894
85.6574	-316.0000	-3.3766
85.9583	-316.0000	-3.3753
86.2580	-316.0000	-3.3784
86.5579	-316.0000	-3.3797
86.8585	-316.0000	-3.3702
87.1592	-316.0000	-3.3653
87.4584	-316.0000	-3.3608
87.7595	-316.0000	-3.3626
88.0607	-316.0000	-3.3596
88.3607	-316.0000	-3.3655
88.6607	-316.0000	-3.3557
88.9607	-315.9990	-3.3443
89.2613	-315.9990	-3.3553
89.5622	-316.0000	-3.3534
89.8619	-316.0000	-3.3478
90.1616	-316.0000	-3.3408
90.4615	-316.0000	-3.3337
90.7622	-316.0000	-3.3427
91.0629	-316.0000	-3.3274
91.3648	-316.0000	-3.3262
91.6664	-316.0000	-3.3268
91.9666	-316.0000	-3.3322
92.2676	-316.0000	-3.3284
92.5713	-316.0000	-3.3166
92.8709	-316.0000	-3.3251
93.1708	-316.0000	-3.3182
93.4707	-316.0000	-3.3130
93.7706	-316.0000	-3.3101
94.0708	-316.0000	-3.3105
94.3708	-316.0000	-3.3082
94.6709	-316.0000	-3.2918
94.9722	-316.0000	-3.2976
95.2728	-316.0000	-3.2970
95.5733	-316.0000	-3.2888
95.8731	-316.0000	-3.2893
96.1733	-316.0000	-3.2865
96.4733	-316.0000	-3.2861
96.7733	-316.0000	-3.2732
97.0749	-316.0000	-3.2741
97.3748	-316.0000	-3.2746
97.6769	-316.0000	-3.2712
97.9776	-316.0000	-3.2631
98.2772	-316.0000	-3.2672
98.5779	-316.0000	-3.2595
98.8785	-316.0000	-3.2582
99.1786	-316.0000	-3.2559
99.4807	-316.0000	-3.2476
99.7810	-316.0000	-3.2476
100.0808	-316.0000	-3.2441
100.3826	-316.0000	-3.2403
100.6817	-316.0000	-3.2396
100.9824	-316.0000	-3.2332
101.2825	-316.0000	-3.2331
101.5834	-316.0000	-3.2284
101.8834	-316.0000	-3.2266
102.1834	-316.0000	-3.2199
102.4834	-316.0000	-3.2267
102.7834	-316.0000	-3.2083
103.0831	-316.0000	-3.2098
103.3834	-316.0000	-3.2183
103.6828	-316.0000	-3.2116
103.9834	-316.0000	-3.2096
104.2830	-316.0000	-3.2005
104.5830	-316.0000	-3.1978
104.8841	-316.0000	-3.2056
105.1848	-316.0000	-3.1922
105.4854	-316.0000	-3.1855
105.7851	-316.0000	-3.1911
106.0853	-316.0000	-3.1824
106.3855	-316.0000	-3.1771
106.6853	-316.0000	-3.1767
106.9852	-316.0000	-3.1734
107.2851	-316.0000	-3.1681
107.5862	-316.0000	-3.1701
107.8859	-316.0000	-3.1612
108.1863	-316.0000	-3.1544
108.4865	-316.0000	-3.1536
108.7864	-316.0000	-3.1415
109.0874	-316.0000	-3.1476
109.3881	-316.0000	-3.1331
109.6888	-316.0000	-3.1312
109.9895	-316.0000	-3.1247
110.2894	-316.0000	-3.1233
110.5906	-316.0000	-3.1120
110.8910	-316.0000	-3.1125
111.1918	-316.0000	-3.1044
111.4917	-316.0000	-3.1025
111.7911	-316.0000	-3.0969
112.0909	-316.0000	-3.0907
112.3910	-316.0000	-3.0781
112.6912	-316.0000	-3.0807
112.9912	-316.0000	-3.0724
113.2911	-316.0000	-3.0644
113.5911	-316.0000	-3.0487
113.8912	-316.0000	-3.0445
114.1925	-316.0000	-3.0444
114.4931	-316.0000	-3.0481
114.7936	-316.0000	-3.0398
115.0936	-316.0000	-3.0318
115.3933	-316.0000	-3.0333
115.6935	-316.0000	-3.0195
115.9939	-316.0000	-3.0186
116.2946	-316.0000	-3.0183
116.5946	-316.0000	-3.0070
116.8947	-316.0000	-2.9973
117.1948	-316.0000	-3.0006
117.4948	-316.0000	-2.9957
117.7952	-316.0000	-2.9912
118.0955	-316.0000	-2.9892
118.3971	-316.0000	-2.9797
118.6990	-316.0000	-2.9796
119.0017	-316.0000	-2.9713
119.3012	-316.0000	-2.9707
119.6020	-316.0000	-2.9687
119.9042	-316.0000	-2.9628
120.2056	-316.0000	-2.9522
120.5061	-316.0000	-2.9573
120.8068	-316.0000	-2.9398
121.1070	-316.0000	-2.9450
121.4073	-316.0000	-2.9438
121.7081	-316.0000	-2.9364
122.0101	-316.0000	-2.9327
122.3113	-316.0000	-2.9287
122.6116	-316.0000	-2.9175
122.9113	-316.0000	-2.9211
123.2113	-316.0000	-2.9205
123.5113	-316.0000	-2.9129
123.8112	-316.0000	-2.9106
124.1113	-316.0000	-2.9018
124.4113	-316.0000	-2.8992
124.7128	-316.0000	-2.8985
125.0123	-316.0000	-2.8866
125.3135	-316.0000	-2.8846
125.6137	-316.0000	-2.8812
125.9134	-316.0000	-2.8724
126.2136	-316.0000	-2.8750
126.5133	-316.0000	-2.8670
126.8134	-316.0000	-2.8607
127.1149	-316.0000	-2.8576
127.4156	-316.0000	-2.8498
127.7171	-316.0000	-2.8452
128.0178	-316.0000	-2.8488
128.3184	-316.0000	-2.8457
128.6191	-316.0000	-2.8374
128.9183	-316.0000	-2.8320
129.2191	-316.0000	-2.8239
129.5183	-316.0000	-2.8170
129.8190	-316.0000	-2.8152
130.1191	-316.0000	-2.8003
130.4188	-316.0000	-2.8035
130.7201	-316.0000	-2.8035
131.0199	-316.0000	-2.7984
131.3204	-316.0000	-2.7968
131.6215	-316.0000	-2.7892
131.9226	-316.0000	-2.7848
132.2235	-316.0000	-2.7797
132.5239	-316.0000	-2.7813
132.8239	-316.0000	-2.7696
133.1238	-316.0000	-2.7707
133.4238	-316.0000	-2.7644
133.7239	-316.0000	-2.7536
134.0239	-316.0000	-2.7527
134.3239	-316.0000	-2.7554
134.6239	-316.0000	-2.7458
134.9239	-316.0000	-2.7393
135.2236	-316.0000	-2.7330
135.5239	-316.0000	-2.7305
135.8238	-316.0000	-2.7313
136.1236	-316.0000	-2.7232
136.4239	-316.0000	-2.7203
136.7240	-316.0000	-2.7073
137.0239	-316.0000	-2.7101
137.3243	-316.0000	-2.6968
137.6250	-316.0000	-2.6925
137.9252	-316.0000	-2.6957
138.2250	-316.0000	-2.6874
138.5244	-316.0000	-2.6787
138.8244	-316.0000	-2.6730
139.1243	-316.0000	-2.6679
139.4269	-316.0000	-2.6668
139.7273	-316.0000	-2.6602
140.0281	-316.0000	-2.6606
140.3283	-316.0000	-2.6499
140.6293	-316.0000	-2.6540
140.9307	-316.0000	-2.6469
141.2311	-316.0000	-2.6349
141.5314	-316.0000	-2.6384
141.8330	-316.0000	-2.6262
142.1332	-316.0000	-2.6196
142.4339	-316.0000	-2.6313
142.7336	-316.0000	-2.6072
143.0341	-316.0000	-2.6082
143.3341	-316.0000	-2.6051
143.6340	-316.0000	-2.6041
143.9340	-316.0000	-2.6004
144.2340	-316.0000	-2.5876
144.5340	-316.0000	-2.5793
144.8346	-316.0000	-2.5751
145.1353	-316.0000	-2.5798
145.4355	-316.0000	-2.5687
145.7361	-316.0000	-2.5740
146.0363	-316.0000	-2.5624
146.3355	-316.0000	-2.5586
146.6357	-316.0000	-2.5506
146.9374	-316.0000	-2.5384
147.2379	-316.0000	-2.5390
147.5386	-316.0000	-2.5294
147.8390	-316.0000	-2.5287
148.1397	-316.0000	-2.5168
148.4399	-316.0000	-2.5233
148.7403	-316.0000	-2.5038
149.0401	-316.0000	-2.5096
149.3417	-316.0000	-2.4941
149.6418	-316.0000	-2.5001
149.9418	-316.0000	-2.4888
150.2421	-316.0000	-2.4890
150.5418	-316.0000	-2.4827
150.8418	-316.0000	-2.4775
151.1418	-316.0000	-2.4685
151.4418	-316.0000	-2.4605
151.7418	-316.0000	-2.4609
152.0418	-316.0000	-2.4530
152.3418	-316.0000	-2.4459
152.6424	-316.0000	-2.4389
152.9418	-316.0000	-2.4358
153.2435	-316.0000	-2.4296
153.5428	-316.0000	-2.4238
153.8431	-316.0000	-2.4195
154.1439	-316.0000	-2.4182
154.4443	-316.0000	-2.4120
154.7439	-316.0000	-2.3961
155.0443	-316.0000	-2.3966
155.3442	-316.0000	-2.3922
155.6447	-316.0000	-2.3903
155.9464	-316.0000	-2.3891
156.2472	-316.0000	-2.3709
156.5483	-316.0000	-2.3696
156.8486	-316.0000	-2.3615
157.1492	-316.0000	-2.3506
157.4502	-316.0000	-2.3520
157.7501	-316.0000	-2.3495
158.0501	-316.0000	-2.3350
158.3501	-316.0000	-2.3278
158.6501	-316.0000	-2.3297
158.9506	-316.0000	-2.3146
159.2507	-316.0000	-2.3077
159.5519	-316.0000	-2.3048
159.8534	-316.0000	-2.2952
160.1543	-316.0000	-2.2921
160.4544	-316.0000	-2.2876
160.7543	-316.0000	-2.2736
161.0544	-316.0000	-2.2696
161.3540	-316.0000	-2.2580
161.6544	-316.0000	-2.2557
161.9543	-316.0000	-2.2540
162.2540	-316.0000	-2.2445
162.5544	-316.0000	-2.2370
162.8557	-316.0000	-2.2362
163.1553	-316.0000	-2.2164
163.4549	-316.0000	-2.2137
163.7560	-316.0000	-2.2151
164.0569	-316.0000	-2.2068
164.3578	-316.0000	-2.2001
164.6581	-316.0000	-2.1907
164.9599	-316.0000	-2.1765
165.2619	-316.0000	-2.1671
165.5621	-316.0000	-2.1672
165.8621	-316.0000	-2.1555
166.1621	-316.0000	-2.1445
166.4621	-316.0000	-2.1417
166.7622	-316.0000	-2.1439
167.0621	-316.0000	-2.1311
167.3621	-316.0000	-2.1228
167.6621	-316.0000	-2.1179
167.9621	-316.0000	-2.0985
168.2623	-316.0000	-2.0901
168.5619	-316.0000	-2.0869
168.8621	-316.0000	-2.0770
169.1637	-316.0000	-2.0643
169.4645	-316.0000	-2.0663
169.7647	-316.0000	-2.0565
170.0644	-316.0000	-2.0402
170.3646	-316.0000	-2.0323
170.6646	-316.0000	-2.0313
170.9657	-316.0000	-2.0151
171.2667	-316.0000	-2.0126
171.5664	-316.0000	-2.0082
171.8669	-316.0000	-1.9934
172.1675	-316.0000	-1.9917
172.4674	-316.0000	-1.9811
172.7691	-316.0000	-1.9772
173.0698	-316.0000	-1.9640
173.3699	-316.0000	-1.9592
173.6700	-316.0000	-1.9523
173.9711	-316.0000	-1.9430
174.2728	-316.0000	-1.9385
174.5721	-316.0000	-1.9330
174.8751	-316.0000	-1.9223
175.1764	-316.0000	-1.9076
175.4766	-316.0000	-1.9032
175.7779	-316.0000	-1.8939
176.0789	-316.0000	-1.8841
176.3781	-316.0000	-1.8792
176.6796	-316.0000	-1.8617
176.9796	-316.0000	-1.8603
177.2798	-316.0000	-1.8462
177.5799	-316.0000	-1.8404
177.8800	-316.0000	-1.8237
178.1804	-316.0000	-1.8165
178.4801	-316.0000	-1.8102
178.7809	-316.0000	-1.7975
179.0808	-316.0000	-1.7884
179.3805	-316.0000	-1.7752
179.6820	-316.0000	-1.7575
179.9819	-316.0000	-1.7559
180.2823	-316.0000	-1.7429
180.5823	-316.0000	-1.7317
180.8826	-316.0000	-1.7226
181.1824	-316.0000	-1.7115
181.4823	-316.0000	-1.7040
181.7824	-316.0000	-1.6948
182.0823	-316.0000	-1.6899
182.3823	-316.0000	-1.6819
182.6824	-316.0000	-1.6676
182.9847	-316.0000	-1.6619
183.2853	-316.0000	-1.6572
183.5879	-316.0000	-1.6505
183.8888	-316.0000	-1.6378
184.1891	-316.0000	-1.6363
184.4897	-316.0000	-1.6221
184.7900	-316.0000	-1.6115
185.0897	-316.0000	-1.6082
185.3908	-316.0000	-1.6065
185.6906	-316.0000	-1.5812
185.9904	-316.0000	-1.5877
186.2906	-316.0000	-1.5798
186.5904	-316.0000	-1.5726
186.8910	-316.0000	-1.5622
187.1911	-316.0000	-1.5516
187.4904	-316.0000	-1.5580
187.7906	-316.0000	-1.5469
188.0925	-316.0000	-1.5394
188.3923	-316.0000	-1.5264
188.6931	-316.0000	-1.5290
188.9924	-316.0000	-1.5146
189.2925	-316.0000	-1.5205
189.5925	-316.0000	-1.4994
189.8925	-316.0000	-1.5055
190.1924	-316.0000	-1.4844
190.4944	-316.0000	-1.4841
190.7948	-316.0000	-1.4801
191.0945	-316.0000	-1.4713
191.3961	-316.0000	-1.4658
191.6969	-316.0000	-1.4728
191.9971	-316.0000	-1.4603
192.2971	-316.0000	-1.4555
192.5978	-316.0000	-1.4476
192.8988	-316.0000	-1.4400
193.2002	-316.0000	-1.4350
193.4998	-316.0000	-1.4244
193.8004	-316.0000	-1.4221
194.1007	-316.0000	-1.4184
194.4011	-315.9990	-1.4100
194.7007	-315.9990	-1.4036
195.0014	-316.0000	-1.4018
195.3019	-316.0000	-1.3973
195.6031	-316.0000	-1.3843
195.9028	-316.0000	-1.3972
196.2024	-316.0000	-1.3887
196.5042	-316.0000	-1.3795
196.8048	-316.0000	-1.3756
197.1050	-316.0000	-1.3693
197.4049	-316.0000	-1.3648
197.7051	-316.0000	-1.3577
198.0049	-316.0000	-1.3522
198.3062	-316.0000	-1.3442
198.6059	-316.0000	-1.3489
198.9064	-316.0000	-1.3402
199.2072	-316.0000	-1.3364
199.5093	-316.0000	-1.3253
199.8103	-316.0000	-1.3209
200.1102	-316.0000	-1.3217
200.4098	-316.0000	-1.3155
200.7104	-316.0000	-1.3091
201.0120	-316.0000	-1.3105
201.3131	-316.0000	-1.3059
201.6143	-316.0000	-1.2935
201.9135	-316.0000	-1.2956
202.2136	-316.0000	-1.2890
202.5137	-316.0000	-1.2798
202.8148	-316.0000	-1.2810
203.1150	-316.0000	-1.2737
203.4148	-316.0000	-1.2688
203.7174	-316.0000	-1.2663
204.0183	-316.0000	-1.2648
204.3190	-316.0000	-1.2559
204.6194	-316.0000	-1.2484
204.9204	-316.0000	-1.2442
205.2206	-316.0000	-1.2368
205.5205	-316.0000	-1.2308
205.8215	-316.0000	-1.2294
206.1228	-316.0000	-1.2259
206.4227	-316.0000	-1.2179
206.7228	-316.0000	-1.2162
207.0225	-316.0000	-1.2128
207.3244	-316.0000	-1.2050
207.6236	-316.0000	-1.2118
207.9238	-316.0000	-1.1936
208.2240	-316.0000	-1.1912
208.5241	-316.0000	-1.1910
208.8252	-316.0000	-1.1926
209.1264	-316.0000	-1.1895
209.4269	-316.0000	-1.1793
209.7273	-316.0000	-1.1791
210.0270	-316.0000	-1.1741
210.3284	-316.0000	-1.1685
210.6297	-316.0000	-1.1577
210.9301	-316.0000	-1.1564
211.2305	-316.0000	-1.1520
211.5317	-316.0000	-1.1521
211.8316	-316.0000	-1.1507
212.1326	-316.0000	-1.1401
212.4329	-316.0000	-1.1384
212.7329	-316.0000	-1.1438
213.0329	-316.0000	-1.1366
213.3329	-316.0000	-1.1296
213.6329	-316.0000	-1.1289
213.9328	-316.0000	-1.1256
214.2329	-316.0000	-1.1180
214.5329	-316.0000	-1.1186
214.8352	-316.0000	-1.1048
215.1353	-316.0000	-1.1223
215.4353	-316.0000	-1.1110
215.7352	-316.0000	-1.1121
216.0349	-316.0000	-1.1074
216.3353	-316.0000	-1.1015
216.6353	-316.0000	-1.0927
216.9348	-316.0000	-1.0920
217.2368	-316.0000	-1.0836
217.5388	-316.0000	-1.0856
217.8399	-316.0000	-1.0853
218.1422	-316.0000	-1.0833
218.4431	-316.0000	-1.0811
218.7436	-316.0000	-1.0712
219.0430	-316.0000	-1.0694
219.3429	-316.0000	-1.0683
219.6436	-316.0000	-1.0704
219.9429	-316.0000	-1.0616
220.2429	-316.0000	-1.0581
220.5428	-316.0000	-1.0618
220.8429	-316.0000	-1.0578
221.1430	-316.0000	-1.0608
221.4430	-316.0000	-1.0480
221.7445	-316.0000	-1.0503
222.0445	-316.0000	-1.0459
222.3444	-316.0000	-1.0409
222.6453	-316.0000	-1.0481
222.9451	-316.0000	-1.0396
223.2454	-316.0000	-1.0350
223.5450	-316.0000	-1.0349
223.8453	-316.0000	-1.0325
224.1448	-316.0000	-1.0343
224.4454	-316.0000	-1.0321
224.7455	-316.0000	-1.0249
225.0454	-316.0000	-1.0294
225.3455	-316.0000	-1.0198
225.6460	-316.0000	-1.0252
225.9464	-316.0000	-1.0191
226.2472	-316.0000	-1.0257
226.5473	-316.0000	-1.0115
226.8483	-316.0000	-1.0040
227.1487	-316.0000	-0.9995
227.4479	-316.0000	-1.0004
227.7479	-316.0000	-1.0105
228.0491	-316.0000	-1.0055
228.3498	-316.0000	-1.0006
228.6508	-316.0000	-1.0009
228.9531	-316.0000	-0.9954
229.2545	-316.0000	-0.9958
229.5545	-316.0000	-0.9929
229.8549	-316.0000	-0.9906
230.1553	-316.0000	-0.9951
230.4556	-316.0000	-0.9841
230.7554	-316.0000	-0.9865
231.0556	-316.0000	-0.9835
231.3556	-316.0000	-0.9784
231.6556	-316.0000	-0.9836
231.9556	-316.0000	-0.9764
232.2565	-316.0000	-0.9759
232.5564	-316.0000	-0.9834
232.8577	-316.0000	-0.9774
233.1582	-316.0000	-0.9736
233.4590	-316.0000	-0.9755
233.7591	-316.0000	-0.9712
234.0603	-316.0000	-0.9663
234.3610	-316.0000	-0.9565
234.6614	-316.0000	-0.9613
234.9612	-316.0000	-0.9576
235.2612	-316.0000	-0.9586
235.5611	-316.0000	-0.9549
235.8625	-316.0000	-0.9465
236.1622	-316.0000	-0.9436
236.4633	-316.0000	-0.9467
236.7632	-316.0000	-0.9555
237.0633	-316.0000	-0.9452
237.3633	-316.0000	-0.9447
237.6633	-316.0000	-0.9438
237.9633	-316.0000	-0.9446
238.2641	-316.0000	-0.9342
238.5655	-316.0000	-0.9400
238.8657	-316.0000	-0.9313
239.1657	-316.0000	-0.9421
239.4653	-316.0000	-0.9317
239.7657	-316.0000	-0.9326
240.0658	-316.0000	-0.9322
240.3656	-316.0000	-0.9298
240.6662	-316.0000	-0.9339
240.9669	-316.0000	-0.9291
241.2669	-316.0000	-0.9273
241.5668	-316.0000	-0.9254
241.8662	-316.0000	-0.9299
242.1672	-316.0000	-0.9289
242.4682	-316.0000	-0.9170
242.7681	-316.0000	-0.9151
243.0691	-316.0000	-0.9215
243.3720	-316.0000	-0.9206
243.6712	-316.0000	-0.9163
243.9722	-316.0000	-0.9116
244.2746	-316.0000	-0.9114
244.5750	-316.0000	-0.9114
244.8757	-316.0000	-0.9121
245.1756	-316.0000	-0.9051
245.4759	-316.0000	-0.9063
245.7758	-316.0000	-0.9051
246.0756	-316.0000	-0.9010
246.3758	-316.0000	-0.9021
246.6758	-316.0000	-0.9007
246.9759	-316.0000	-0.8996
247.2759	-316.0000	-0.9031
247.5758	-316.0000	-0.9003
247.8757	-316.0000	-0.9019
248.1758	-316.0000	-0.9050
248.4759	-316.0000	-0.9026
248.7765	-316.0000	-0.9010
249.0780	-316.0000	-0.8951
249.3777	-316.0000	-0.8973
249.6774	-316.0000	-0.8945
249.9779	-316.0000	-0.8928
250.2780	-316.0000	-0.8860
250.5788	-316.0000	-0.8931
250.8784	-316.0000	-0.8894
251.1793	-316.0000	-0.8893
251.4819	-316.0000	-0.8797
251.7821	-316.0000	-0.8824
252.0818	-316.0000	-0.8832
252.3812	-316.0000	-0.8830
252.6822	-316.0000	-0.8834
252.9842	-316.0000	-0.8848
253.2835	-316.0000	-0.8713
253.5841	-316.0000	-0.8821
253.8848	-316.0000	-0.8860
254.1856	-316.0000	-0.8813
254.4883	-316.0000	-0.8765
254.7897	-316.0000	-0.8777
255.0906	-316.0000	-0.8780
255.3913	-316.0000	-0.8708
255.6915	-316.0000	-0.8756
255.9914	-316.0000	-0.8745
256.2913	-316.0000	-0.8722
256.5935	-316.0000	-0.8761
256.8965	-316.0000	-0.8656
257.1972	-316.0000	-0.8700
257.4971	-316.0000	-0.8720
257.7971	-316.0000	-0.8694
258.0975	-316.0000	-0.8688
258.3976	-316.0000	-0.8686
258.6977	-316.0000	-0.8699
258.9983	-316.0000	-0.8639
259.2991	-316.0000	-0.8685
259.5990	-316.0000	-0.8619
259.9001	-316.0000	-0.8652
260.2005	-316.0000	-0.8579
260.5010	-316.0000	-0.8567
260.8023	-316.0000	-0.8556
261.1023	-316.0000	-0.8623
261.4031	-316.0000	-0.8589
261.7030	-316.0000	-0.8641
262.0042	-316.0000	-0.8607
262.3037	-316.0000	-0.8565
262.6037	-316.0000	-0.8581
262.9037	-316.0000	-0.8603
263.2037	-316.0000	-0.8446
263.5057	-316.0000	-0.8635
263.8055	-316.0000	-0.8490
264.1062	-316.0000	-0.8518
264.4061	-316.0000	-0.8518
264.7055	-316.0000	-0.8531
265.0058	-316.0000	-0.8479
265.3062	-316.0000	-0.8476
265.6074	-316.0000	-0.8544
265.9075	-316.0000	-0.8513
266.2079	-316.0000	-0.8479
266.5085	-316.0000	-0.8451
266.8097	-316.0000	-0.8454
267.1106	-316.0000	-0.8410
267.4108	-316.0000	-0.8556
267.7112	-316.0000	-0.8446
268.0107	-316.0000	-0.8409
268.3124	-316.0000	-0.8407
268.6131	-316.0000	-0.8347
268.9133	-316.0000	-0.8356
269.2145	-316.0000	-0.8389
269.5137	-316.0000	-0.8358
269.8163	-316.0000	-0.8387
270.1175	-316.0000	-0.8438
270.4185	-316.0000	-0.8352
270.7193	-316.0000	-0.8282
271.0201	-316.0000	-0.8361
271.3207	-316.0000	-0.8390
271.6223	-316.0000	-0.8364
271.9217	-316.0000	-0.8311
272.2232	-316.0000	-0.8361
272.5237	-316.0000	-0.8290
272.8239	-316.0000	-0.8358
273.1239	-316.0000	-0.8302
273.4260	-316.0000	-0.8325
273.7263	-316.0000	-0.8245
274.0263	-316.0000	-0.8297
274.3262	-316.0000	-0.8218
274.6259	-316.0000	-0.8276
274.9263	-316.0000	-0.8253
275.2258	-316.0000	-0.8246
275.5263	-316.0000	-0.8341
275.8262	-316.0000	-0.8192
276.1269	-316.0000	-0.8239
276.4280	-316.0000	-0.8247
276.7284	-316.0000	-0.8250
277.0297	-316.0000	-0.8150
277.3316	-316.0000	-0.8176
277.6327	-316.0000	-0.8214
277.9340	-316.0000	-0.8187
278.2339	-316.0000	-0.8197
278.5339	-316.0000	-0.8197
278.8346	-316.0000	-0.8205
279.1340	-316.0000	-0.8149
279.4340	-316.0000	-0.8178
279.7340	-316.0000	-0.8204
280.0340	-316.0000	-0.8164
280.3344	-316.0000	-0.8175
280.6343	-316.0000	-0.8076
280.9340	-316.0000	-0.8152
281.2344	-316.0000	-0.8113
281.5344	-316.0000	-0.7991
281.8340	-316.0000	-0.7995
282.1341	-316.0000	-0.8104
282.4340	-316.0000	-0.8064
282.7341	-316.0000	-0.7996
283.0341	-316.0000	-0.8085
283.3341	-316.0000	-0.8102
283.6341	-316.0000	-0.8071
283.9341	-316.0000	-0.8069
284.2359	-316.0000	-0.8045
284.5377	-316.0000	-0.7998
284.8372	-316.0000	-0.7961
285.1377	-316.0000	-0.7985
285.4385	-316.0000	-0.8031
285.7396	-316.0000	-0.7937
286.0400	-316.0000	-0.7956
286.3404	-316.0000	-0.7984
286.6415	-316.0000	-0.8013
286.9428	-316.0000	-0.7933
287.2423	-316.0000	-0.7946
287.5427	-316.0000	-0.7949
287.8429	-316.0000	-0.7937
288.1431	-316.0000	-0.7950
288.4447	-316.0000	-0.7918
288.7440	-316.0000	-0.7886
289.0442	-316.0000	-0.7914
289.3442	-316.0000	-0.7936
289.6441	-316.0000	-0.7876
289.9441	-316.0000	-0.7934
290.2443	-316.0000	-0.7889
290.5442	-316.0000	-0.7920
290.8442	-316.0000	-0.7880
291.1443	-316.0000	-0.7905
291.4442	-316.0000	-0.7950
291.7442	-316.0000	-0.7841
292.0442	-316.0000	-0.7860
292.3448	-316.0000	-0.7875
292.6442	-316.0000	-0.7761
292.9442	-316.0000	-0.7836
293.2442	-316.0000	-0.7824
293.5442	-316.0000	-0.7879
293.8442	-316.0000	-0.7808
294.1442	-316.0000	-0.7780
294.4443	-316.0000	-0.7808
294.7441	-316.0000	-0.7860
295.0468	-316.0000	-0.7754
295.3467	-316.0000	-0.7864
295.6467	-316.0000	-0.7808
295.9464	-316.0000	-0.7811
296.2463	-316.0000	-0.7735
296.5466	-316.0000	-0.7765
296.8479	-316.0000	-0.7766
297.1499	-316.0000	-0.7749
297.4509	-316.0000	-0.7665
297.7501	-316.0000	-0.7754
298.0507	-316.0000	-0.7760
298.3517	-316.0000	-0.7746
298.6533	-316.0000	-0.7674
298.9532	-316.0000	-0.7771
299.2541	-316.0000	-0.7760
299.5543	-316.0000	-0.7658
299.8543	-316.0000	-0.7689
300.1556	-316.0000	-0.7735
300.4567	-316.0000	-0.7678
300.7575	-316.0000	-0.7634
301.0585	-316.0000	-0.7687
301.3592	-316.0000	-0.7676
301.6620	-316.0000	-0.7591
301.9616	-316.0000	-0.7687
302.2621	-316.0000	-0.7627
302.5631	-316.0000	-0.7639
302.8642	-316.0000	-0.7664
303.1644	-316.0000	-0.7626
303.4644	-316.0000	-0.7620
303.7644	-316.0000	-0.7591
304.0665	-316.0000	-0.7610
304.3669	-316.0000	-0.7571
304.6666	-316.0000	-0.7538
304.9667	-316.0000	-0.7635
305.2668	-316.0000	-0.7603
305.5669	-316.0000	-0.7592
305.8662	-316.0000	-0.7652
306.1674	-316.0000	-0.7591
306.4693	-316.0000	-0.7558
306.7697	-316.0000	-0.7607
307.0711	-316.0000	-0.7521
307.3703	-316.0000	-0.7534
307.6718	-316.0000	-0.7629
307.9722	-316.0000	-0.7544
308.2717	-316.0000	-0.7593
308.5722	-316.0000	-0.7507
308.8745	-316.0000	-0.7612
309.1745	-316.0000	-0.7524
309.4752	-316.0000	-0.7534
309.7745	-316.0000	-0.7510
310.0745	-316.0000	-0.7515
310.3745	-316.0000	-0.7454
310.6746	-316.0000	-0.7503
310.9745	-316.0000	-0.7468
311.2760	-316.0000	-0.7490
311.5759	-316.0000	-0.7473
311.8760	-316.0000	-0.7478
312.1767	-316.0000	-0.7450
312.4790	-316.0000	-0.7423
312.7787	-316.0000	-0.7405
313.0804	-316.0000	-0.7406
313.3805	-316.0000	-0.7435
313.6808	-316.0000	-0.7486
313.9822	-316.0000	-0.7435
314.2832	-316.0000	-0.7365
314.5824	-316.0000	-0.7406
314.8834	-316.0000	-0.7446
315.1852	-316.0000	-0.7433
315.4846	-316.0000	-0.7408
315.7863	-316.0000	-0.7407
316.0856	-316.0000	-0.7398
316.3856	-316.0000	-0.7401
316.6874	-316.0000	-0.7407
316.9879	-316.0000	-0.7404
317.2883	-316.0000	-0.7373
317.5892	-316.0000	-0.7427
317.8896	-316.0000	-0.7359
318.1899	-316.0000	-0.7407
318.4908	-316.0000	-0.7372
318.7911	-316.0000	-0.7357
319.0908	-316.0000	-0.7337
319.3910	-316.0000	-0.7383
319.6936	-316.0000	-0.7362
319.9946	-316.0000	-0.7373
320.2946	-316.0000	-0.7396
320.5946	-316.0000	-0.7331
320.8946	-316.0000	-0.7306
321.1949	-316.0000	-0.7287
321.4947	-316.0000	-0.7323
321.7949	-316.0000	-0.7326
322.0966	-316.0000	-0.7305
322.3981	-316.0000	-0.7294
322.6993	-316.0000	-0.7284
322.9998	-316.0000	-0.7294
323.3005	-316.0000	-0.7245
323.6016	-316.0000	-0.7310
323.9020	-316.0000	-0.7237
324.2024	-316.0000	-0.7256
324.5025	-316.0000	-0.7174
324.8032	-316.0000	-0.7222
325.1032	-316.0000	-0.7301
325.4047	-316.0000	-0.7214
325.7048	-316.0000	-0.7257
326.0046	-316.0000	-0.7210
326.3063	-316.0000	-0.7191
326.6058	-316.0000	-0.7230
326.9063	-316.0000	-0.7152
327.2068	-316.0000	-0.7238
327.5072	-316.0000	-0.7182
327.8072	-316.0000	-0.7224
328.1068	-316.0000	-0.7210
328.4070	-316.0000	-0.7179
328.7072	-316.0000	-0.7155
329.0073	-316.0000	-0.7210
329.3073	-316.0000	-0.7202
329.6071	-316.0000	-0.7170
329.9067	-316.0000	-0.7106
330.2068	-316.0000	-0.7167
330.5070	-316.0000	-0.7161
330.8072	-316.0000	-0.7179
331.1085	-316.0000	-0.7169
331.4080	-316.0000	-0.7161
331.7098	-316.0000	-0.7108
332.0103	-316.0000	-0.7116
332.3109	-316.0000	-0.7171
332.6116	-316.0000	-0.7151
332.9118	-316.0000	-0.7114
333.2148	-316.0000	-0.7112
333.5174	-316.0000	-0.7148
333.8183	-316.0000	-0.7128
334.1183	-316.0000	-0.7108
334.4184	-316.0000	-0.7083
334.7193	-316.0000	-0.7065
335.0196	-316.0000	-0.7100
335.3191	-316.0000	-0.7026
335.6202	-316.0000	-0.7131
335.9208	-316.0000	-0.7111
336.2218	-316.0000	-0.7026
336.5226	-316.0000	-0.7084
336.8223	-316.0000	-0.7075
337.1217	-316.0000	-0.7018
337.4237	-316.0000	-0.7026
337.7247	-316.0000	-0.6993
338.0250	-316.0000	-0.7057
338.3249	-316.0000	-0.7074
338.6250	-316.0000	-0.7001
338.9265	-316.0000	-0.6973
339.2274	-316.0000	-0.7054
339.5270	-316.0000	-0.7017
339.8284	-316.0000	-0.7050
340.1279	-316.0000	-0.6963
340.4296	-316.0000	-0.7005
340.7298	-316.0000	-0.7042
341.0303	-316.0000	-0.6977
341.3303	-316.0000	-0.7002
341.6304	-316.0000	-0.6967
341.9303	-316.0000	-0.6948
342.2313	-316.0000	-0.7020
342.5314	-316.0000	-0.6997
342.8330	-316.0000	-0.6932
343.1337	-316.0000	-0.6984
343.4336	-316.0000	-0.6970
343.7335	-316.0000	-0.6961
344.0352	-316.0000	-0.6935
344.3350	-316.0000	-0.6950
344.6351	-316.0000	-0.6986
344.9357	-316.0000	-0.6876
345.2350	-316.0000	-0.6938
345.5350	-316.0000	-0.6937
345.8351	-316.0000	-0.6970
346.1351	-316.0000	-0.6896
346.4352	-316.0000	-0.6926
346.7350	-316.0000	-0.6954
347.0351	-316.0000	-0.6858
347.3351	-316.0000	-0.6931
347.6352	-316.0000	-0.6970
347.9352	-316.0000	-0.6890
348.2352	-316.0000	-0.6902
348.5352	-316.0000	-0.6909
348.8351	-316.0000	-0.6902
349.1352	-316.0000	-0.6883
349.4365	-316.0000	-0.6872
349.7373	-316.0000	-0.6877
350.0376	-316.0000	-0.6870
350.3387	-316.0000	-0.6867
350.6392	-316.0000	-0.6919
350.9398	-316.0000	-0.6871
351.2398	-316.0000	-0.6805
351.5409	-316.0000	-0.6876
351.8410	-316.0000	-0.6839
352.1420	-316.0000	-0.6833
352.4430	-316.0000	-0.6827
352.7434	-316.0000	-0.6819
353.0438	-316.0000	-0.6855
353.3433	-316.0000	-0.6831
353.6440	-316.0000	-0.6811
353.9448	-316.0000	-0.6837
354.2444	-316.0000	-0.6800
354.5440	-316.0000	-0.6785
354.8457	-316.0000	-0.6805
355.1459	-316.0000	-0.6792
355.4460	-316.0000	-0.6836
355.7474	-316.0000	-0.6778
356.0476	-316.0000	-0.6824
356.3475	-316.0000	-0.6787
356.6475	-316.0000	-0.6774
356.9477	-316.0000	-0.6790
357.2477	-316.0000	-0.6747
357.5477	-316.0000	-0.6744
357.8475	-316.0000	-0.6758
358.1476	-316.0000	-0.6758
358.4477	-316.0000	-0.6769
358.7478	-316.0000	-0.6730
359.0478	-316.0000	-0.6754
359.3473	-316.0000	-0.6709
359.6478	-316.0000	-0.6773
359.9471	-316.0000	-0.6704
360.2473	-316.0000	-0.6737
360.5483	-316.0000	-0.6707
360.8486	-316.0000	-0.6730
361.1488	-316.0000	-0.6746
361.4490	-316.0000	-0.6754
361.7499	-316.0000	-0.6649
362.0511	-316.0000	-0.6716
362.3517	-316.0000	-0.6686
362.6526	-316.0000	-0.6674
362.9526	-316.0000	-0.6701
363.2539	-316.0000	-0.6695
363.5554	-316.0000	-0.6648
363.8554	-316.0000	-0.6681
364.1554	-316.0000	-0.6739
364.4573	-316.0000	-0.6748
364.7579	-316.0000	-0.6658
365.0579	-316.0000	-0.6683
365.3578	-316.0000	-0.6632
365.6575	-316.0000	-0.6632
365.9576	-316.0000	-0.6681
366.2581	-316.0000	-0.6758
366.5576	-316.0000	-0.6645
366.8574	-316.0000	-0.6639
367.1590	-316.0000	-0.6651
367.4614	-316.0000	-0.6596
367.7621	-316.0000	-0.6573
368.0628	-316.0000	-0.6590
368.3638	-316.0000	-0.6624
368.6642	-316.0000	-0.6618
368.9654	-316.0000	-0.6632
369.2654	-316.0000	-0.6643
369.5655	-316.0000	-0.6630
369.8655	-316.0000	-0.6592
370.1655	-316.0000	-0.6625
370.4655	-316.0000	-0.6594
370.7669	-316.0000	-0.6611
371.0669	-316.0000	-0.6634
371.3663	-316.0000	-0.6573
371.6680	-316.0000	-0.6602
371.9680	-316.0000	-0.6571
372.2677	-316.0000	-0.6600
372.5680	-316.0000	-0.6563
372.8680	-316.0000	-0.6564
373.1680	-316.0000	-0.6554
373.4679	-316.0000	-0.6595
373.7680	-316.0000	-0.6574
374.0694	-316.0000	-0.6660
374.3712	-316.0000	-0.6507
374.6719	-316.0000	-0.6491
374.9732	-316.0000	-0.6519
375.2729	-316.0000	-0.6547
375.5726	-316.0000	-0.6498
375.8741	-316.0000	-0.6528
376.1749	-316.0000	-0.6524
376.4744	-316.0000	-0.6523
376.7757	-316.0000	-0.6502
377.0757	-316.0000	-0.6583
377.3757	-316.0000	-0.6513
377.6757	-316.0000	-0.6481
377.9764	-316.0000	-0.6561
378.2777	-316.0000	-0.6515
378.5781	-316.0000	-0.6565
378.8779	-316.0000	-0.6626
379.1781	-316.0000	-0.6511
379.4779	-316.0000	-0.6523
379.7781	-316.0000	-0.6498
380.0780	-316.0000	-0.6468
380.3782	-316.0000	-0.6534
380.6781	-316.0000	-0.6479
380.9803	-316.0000	-0.6478
381.2798	-316.0000	-0.6493
381.5824	-316.0000	-0.6534
381.8834	-316.0000	-0.6536
382.1846	-316.0000	-0.6482
382.4861	-316.0000	-0.6501
382.7867	-316.0000	-0.6497
383.0869	-316.0000	-0.6392
383.3882	-316.0000	-0.6404
383.6882	-316.0000	-0.6401
383.9879	-316.0000	-0.6395
384.2909	-316.0000	-0.6477
384.5917	-316.0000	-0.6467
384.8927	-316.0000	-0.6450
385.1935	-316.0000	-0.6507
385.4935	-316.0000	-0.6460
385.7930	-316.0000	-0.6418
386.0940	-316.0000	-0.6395
386.3955	-316.0000	-0.6389
386.6953	-316.0000	-0.6408
386.9948	-316.0000	-0.6397
387.2952	-316.0000	-0.6405
387.5954	-316.0000	-0.6369
387.8954	-316.0000	-0.6383
388.1954	-316.0000	-0.6409
388.4947	-316.0000	-0.6455
388.7952	-316.0000	-0.6414
389.0954	-316.0000	-0.6360
389.3947	-316.0000	-0.6409
389.6970	-316.0000	-0.6342
389.9980	-316.0000	-0.6387
390.2991	-316.0000	-0.6394
390.5987	-316.0000	-0.6319
390.9007	-316.0000	-0.6356
391.2016	-316.0000	-0.6346
391.5030	-316.0000	-0.6326
391.8032	-316.0000	-0.6374
392.1034	-316.0000	-0.6375
392.4046	-316.0000	-0.6367
392.7043	-316.0000	-0.6400
393.0042	-316.0000	-0.6351
393.3048	-316.0000	-0.6394
393.6048	-316.0000	-0.6394
393.9055	-316.0000	-0.6391
394.2049	-316.0000	-0.6301
394.5060	-316.0000	-0.6344
394.8067	-316.0000	-0.6295
395.1081	-316.0000	-0.6327
395.4082	-316.0000	-0.6279
395.7084	-316.0000	-0.6279
396.0096	-316.0000	-0.6325
396.1096	-316.0000	-0.6347