File: Tinius-Olsen_Levitation_force/Measurements/20231204_1223cut1_highN_1.txt
4/12/2023 12:23:57 pm
Time(s)	Displacement(mm)	Force(N)
0.0000	-281.2420	1.0455
0.3450	-281.2420	1.0452
0.6446	-281.2420	1.0440
0.9455	-281.2420	1.0463
1.2464	-281.2420	1.0439
1.5463	-281.2420	1.0454
1.8489	-281.2420	1.0433
2.1484	-281.2420	1.0425
2.4480	-281.2420	1.0428
2.7505	-281.2420	1.0461
3.0511	-281.2420	1.0444
3.3516	-281.2420	1.0462
3.6535	-281.2420	1.0428
3.9532	-281.2420	1.0463
4.2544	-281.2420	1.0440
4.5564	-281.2420	1.0436
4.8582	-281.2420	1.0429
5.1606	-281.2420	1.0445
5.4614	-281.2420	1.0488
5.7619	-281.2420	1.0420
6.0629	-281.2420	1.0428
6.3628	-281.2420	1.0479
6.6649	-281.2420	1.0465
6.9644	-281.2420	1.0453
7.2659	-281.2420	1.0413
7.5661	-281.2420	1.0445
7.8672	-281.2420	1.0423
8.1675	-281.2420	1.0424
8.4691	-281.2420	1.0432
8.7681	-281.2420	1.0470
9.0708	-281.2420	1.0461
9.3724	-281.2420	1.0488
9.6726	-281.2420	1.0475
9.9724	-281.2420	1.0488
10.2722	-281.2420	1.0485
10.5733	-281.2420	1.0474
10.8733	-281.2420	1.0470
11.1740	-281.2420	1.0499
11.4749	-281.2420	1.0495
11.7767	-281.2420	1.0509
12.0772	-281.2420	1.0470
12.3786	-281.2420	1.0483
12.6799	-281.2420	1.0492
12.9811	-281.2420	1.0512
13.2803	-281.2420	1.0434
13.5805	-281.2420	1.0500
13.8806	-281.2420	1.0490
14.1827	-281.0970	1.0604
14.5053	-280.9990	1.0540
14.8068	-280.9990	1.0550
15.1090	-280.9990	1.0533
15.4087	-281.0000	1.0540
15.7099	-281.0000	1.0522
16.0099	-281.0000	1.0527
16.3117	-281.0000	1.0543
16.6132	-281.0000	1.0536
16.9133	-281.0000	1.0571
17.2136	-281.0000	1.0560
17.5141	-281.0000	1.0565
17.8136	-281.0000	1.0542
18.1146	-281.0000	1.0533
18.4164	-281.0000	1.0583
18.7189	-281.0000	1.0587
19.0185	-281.0000	1.0567
19.3184	-281.0000	1.0628
19.6185	-281.0000	1.0605
19.9198	-281.0000	1.0581
20.2205	-281.0000	1.0593
20.5221	-281.0000	1.0587
20.8240	-281.0000	1.0602
21.1245	-281.0000	1.0553
21.4261	-281.0000	1.0618
21.7259	-281.0000	1.0630
22.0272	-281.0000	1.0586
22.3264	-281.0000	1.0608
22.6281	-281.0000	1.0608
22.9293	-281.0000	1.0611
23.2307	-281.0000	1.0600
23.5334	-281.0000	1.0633
23.8336	-281.0000	1.0609
24.1347	-281.0000	1.0616
24.4348	-281.0000	1.0622
24.7348	-281.0000	1.0591
25.0353	-281.0000	1.0654
25.3367	-281.0000	1.0601
25.6376	-281.0000	1.0620
25.9384	-281.0000	1.0590
26.2387	-281.0000	1.0631
26.5388	-281.0000	1.0597
26.8386	-281.0000	1.0605
27.1386	-281.0000	1.0628
27.4396	-281.0000	1.0572
27.7405	-281.0000	1.0632
28.0417	-281.0000	1.0586
28.3433	-281.0000	1.0618
28.6460	-281.0000	1.0632
28.9489	-281.0000	1.0605
29.2495	-281.0000	1.0629
29.5501	-281.0000	1.0632
29.8502	-281.0000	1.0619
30.1502	-281.0000	1.0628
30.4495	-281.0000	1.0627
30.7512	-281.0000	1.0619
31.0520	-281.0000	1.0650
31.3541	-281.0000	1.0660
31.6580	-281.0000	1.0611
31.9592	-281.0000	1.0639
32.2612	-281.0000	1.0593
32.5617	-281.0000	1.0634
32.8639	-281.0000	1.0633
33.1646	-281.0000	1.0606
33.4655	-281.0000	1.0661
33.7660	-281.0000	1.0647
34.0661	-281.0000	1.0633
34.3656	-281.0000	1.0674
34.6682	-281.0000	1.0627
34.9693	-281.0000	1.0645
35.2695	-281.0000	1.0649
35.5708	-281.0000	1.0687
35.8708	-281.0000	1.0657
36.1716	-281.0000	1.0659
36.4744	-281.0000	1.0723
36.7746	-281.0000	1.0644
37.0761	-281.0000	1.0647
37.3764	-281.0000	1.0660
37.6763	-281.0000	1.0626
37.9762	-281.0000	1.0647
38.2773	-280.7730	1.0702
38.5793	-280.1670	1.0746
38.8789	-279.5620	1.0798
39.1800	-278.9570	1.0933
39.4818	-278.3620	1.1028
39.7833	-277.7570	1.1108
40.0836	-277.1520	1.1265
40.3853	-276.5470	1.1331
40.6847	-275.9520	1.1432
40.9846	-275.3350	1.1491
41.2850	-272.4920	1.1903
41.5850	-269.4670	1.2479
41.8866	-266.4430	1.2930
42.1872	-263.4690	1.3399
42.4886	-260.4440	1.3619
42.7903	-257.4190	1.3597
43.0905	-254.4450	1.3690
43.3900	-251.4210	1.3738
43.6915	-248.4470	1.3772
43.9909	-245.4220	1.3743
44.2910	-242.4480	1.3739
44.5909	-239.4230	1.3722
44.8919	-236.6030	1.3726
45.1944	-236.5680	1.3748
45.4956	-236.5680	1.3729
45.7963	-236.5690	1.3732
46.0974	-236.8270	1.3660
46.3984	-237.4220	1.3729
46.7003	-238.0270	1.3701
47.0014	-240.1960	1.3670
47.3023	-243.1690	1.3716
47.6019	-246.1980	1.3714
47.9025	-249.2220	1.3684
48.2031	-252.1960	1.3695
48.5035	-255.2210	1.3635
48.8028	-258.1940	1.3557
49.1055	-261.2200	1.3467
49.4068	-264.2480	1.3412
49.7071	-267.2730	1.3162
50.0068	-270.2470	1.2612
50.3077	-273.2720	1.2086
50.6088	-276.2460	1.1586
50.9090	-279.2700	1.1000
51.2090	-282.2440	1.0498
51.5090	-285.2690	1.0284
51.8088	-288.2420	1.0029
52.1099	-291.2670	0.9634
52.4110	-292.5330	0.9362
52.7131	-292.5330	0.9214
53.0159	-292.5330	0.9281
53.3161	-292.5320	0.9279
53.6160	-292.5320	0.9268
53.9175	-292.5320	0.9254
54.2197	-292.5320	0.9310
54.5215	-292.5320	0.9299
54.8226	-292.5320	0.9276
55.1230	-292.5320	0.9285
55.4235	-292.5320	0.9332
55.7236	-292.5320	0.9343
56.0248	-292.5320	0.9293
56.3267	-292.5320	0.9322
56.6275	-292.5320	0.9338
56.9282	-292.5320	0.9281
57.2279	-292.5320	0.9281
57.5294	-292.5320	0.9333
57.8309	-292.5320	0.9334
58.1314	-292.5320	0.9324
58.4335	-292.5320	0.9319
58.7341	-292.5320	0.9359
59.0343	-292.5320	0.9331
59.3346	-292.5320	0.9333
59.6354	-292.5320	0.9359
59.9364	-292.5320	0.9355
60.2365	-292.5320	0.9278
60.5369	-292.5320	0.9279
60.8366	-292.5320	0.9356
61.1384	-292.5320	0.9354
61.4411	-292.5320	0.9334
61.7422	-292.5320	0.9316
62.0427	-292.5320	0.9341
62.3437	-292.5320	0.9331
62.6442	-292.5320	0.9329
62.9462	-292.5320	0.9343
63.2462	-292.5320	0.9323
63.5473	-292.5320	0.9318
63.8489	-292.5320	0.9298
64.1508	-292.5320	0.9302
64.4529	-292.5320	0.9279
64.7543	-292.5320	0.9290
65.0548	-292.5320	0.9364
65.3557	-292.5320	0.9338
65.6554	-292.5320	0.9341
65.9550	-292.5320	0.9301
66.2558	-292.5320	0.9349
66.5563	-292.5320	0.9333
66.8566	-292.5320	0.9306
67.1583	-292.5320	0.9305
67.4592	-292.5320	0.9334
67.7609	-292.5320	0.9326
68.0611	-292.5320	0.9327
68.3616	-292.5320	0.9353
68.6610	-292.5320	0.9351
68.9610	-292.5320	0.9308
69.2613	-292.5320	0.9331
69.5629	-292.5320	0.9302
69.8646	-292.5320	0.9306
70.1654	-292.5320	0.9330
70.4679	-292.5320	0.9321
70.7671	-292.5320	0.9360
71.0673	-292.5320	0.9313
71.3685	-292.5320	0.9326
71.6697	-292.5320	0.9369
71.9699	-292.5320	0.9357
72.2715	-292.5320	0.9355
72.5710	-292.5320	0.9372
72.8716	-292.5320	0.9365
73.1715	-292.5320	0.9348
73.4719	-292.5320	0.9344
73.7722	-292.5320	0.9375
74.0738	-292.5320	0.9386
74.3735	-292.5320	0.9348
74.6737	-292.5320	0.9374
74.9730	-292.5320	0.9316
75.2732	-292.5320	0.9330
75.5746	-292.5320	0.9350
75.8768	-292.5320	0.9335
76.1765	-292.5320	0.9341
76.4793	-292.5320	0.9346
76.7817	-292.5320	0.9354
77.0817	-292.5320	0.9330
77.3819	-292.5320	0.9322
77.6833	-292.5320	0.9334
77.9845	-292.5320	0.9370
78.2857	-292.5320	0.9325
78.5869	-292.5320	0.9351
78.8878	-292.5320	0.9394
79.1887	-292.5320	0.9413
79.4890	-292.5320	0.9370
79.7901	-292.5320	0.9365
80.0917	-292.5320	0.9364
80.3916	-292.5320	0.9377
80.6914	-292.5320	0.9340
80.9920	-292.5320	0.9337
81.2927	-292.5320	0.9338
81.5940	-292.5320	0.9373
81.8935	-292.5320	0.9373
82.1941	-292.5320	0.9346
82.4942	-292.5320	0.9367
82.7946	-292.5320	0.9396
83.0949	-292.5320	0.9331
83.3959	-292.5320	0.9347
83.6968	-292.5320	0.9404
83.9962	-292.5320	0.9349
84.2988	-292.5320	0.9358
84.5988	-292.5320	0.9354
84.9009	-292.5320	0.9384
85.2035	-292.5320	0.9361
85.5045	-292.5320	0.9364
85.8060	-292.5320	0.9381
86.1052	-292.5320	0.9402
86.4060	-292.5320	0.9405
86.7051	-292.5320	0.9369
87.0058	-292.5320	0.9376
87.3071	-292.5320	0.9374
87.6083	-292.5320	0.9356
87.9082	-292.5320	0.9369
88.2093	-292.5320	0.9362
88.5100	-292.5320	0.9388
88.8094	-292.5320	0.9348
89.1095	-292.5320	0.9367
89.4092	-292.5320	0.9397
89.7120	-292.5320	0.9385
90.0125	-292.5320	0.9347
90.3150	-292.5320	0.9351
90.6152	-292.5320	0.9358
90.9165	-292.5320	0.9346
91.2197	-292.5320	0.9332
91.5201	-292.5320	0.9379
91.8212	-292.5320	0.9371
92.1229	-292.5320	0.9325
92.4228	-292.5320	0.9356
92.7235	-292.5320	0.9372
93.0245	-292.5320	0.9396
93.3252	-292.5320	0.9361
93.6264	-292.5320	0.9435
93.9280	-292.5320	0.9404
94.2290	-292.5320	0.9395
94.5296	-292.5320	0.9399
94.8295	-292.5320	0.9370
95.1319	-292.5320	0.9366
95.4315	-292.5320	0.9342
95.7316	-292.5320	0.9349
96.0317	-292.5320	0.9346
96.3323	-292.5320	0.9338
96.6351	-292.5320	0.9369
96.9370	-292.5320	0.9366
97.2363	-292.5320	0.9401
97.5375	-292.5320	0.9376
97.8383	-292.5320	0.9389
98.1393	-292.5320	0.9349
98.4409	-292.5320	0.9364
98.7441	-292.5320	0.9352
99.0443	-292.5320	0.9352
99.3444	-292.5320	0.9340
99.6461	-292.5320	0.9349
99.9465	-292.5320	0.9396
100.2474	-292.5320	0.9397
100.5492	-292.5320	0.9408
100.8490	-292.5320	0.9386
101.1491	-292.5320	0.9355
101.4506	-292.5320	0.9444
101.7532	-292.5320	0.9401
102.0533	-292.5320	0.9381
102.3570	-292.5320	0.9404
102.6571	-292.5320	0.9370
102.9578	-292.5320	0.9395
103.2593	-292.5320	0.9369
103.5612	-292.5320	0.9433
103.8624	-292.5320	0.9419
104.1627	-292.5320	0.9418
104.4642	-292.5320	0.9400
104.7639	-292.5320	0.9362
105.0651	-292.5320	0.9334
105.3648	-292.5320	0.9351
105.6654	-292.5320	0.9333
105.9661	-292.5320	0.9356
106.2671	-292.5320	0.9374
106.5690	-292.5320	0.9391
106.8696	-292.5320	0.9384
107.1715	-292.5320	0.9339
107.4718	-292.5320	0.9399
107.7725	-292.5320	0.9425
108.0725	-292.5320	0.9423
108.3734	-292.5320	0.9386
108.6760	-292.5320	0.9428
108.9766	-292.5320	0.9378
109.2781	-292.5320	0.9375
109.5779	-292.5320	0.9373
109.8780	-292.5320	0.9373
110.1802	-292.5320	0.9403
110.4796	-292.5320	0.9381
110.7797	-292.5320	0.9393
111.0812	-292.5320	0.9422
111.3824	-292.5320	0.9414
111.6817	-292.5320	0.9453
111.9821	-292.5320	0.9446
112.2818	-292.5320	0.9428
112.5822	-292.5320	0.9399
112.8820	-292.5320	0.9429
113.1839	-292.5320	0.9408
113.4852	-292.5320	0.9413
113.7871	-292.5320	0.9427
114.0865	-292.5320	0.9398
114.3885	-292.5320	0.9436
114.6897	-292.5320	0.9383
114.9919	-292.5320	0.9386
115.2927	-292.5320	0.9397
115.5942	-292.5320	0.9413
115.8944	-292.5320	0.9449
116.1941	-292.5320	0.9407
116.4957	-292.5320	0.9414
116.7987	-292.5320	0.9396
117.1015	-292.5320	0.9389
117.4012	-292.5320	0.9354
117.7024	-292.5320	0.9410
118.0027	-292.5320	0.9355
118.3048	-292.5320	0.9378
118.6063	-292.5320	0.9390
118.9066	-292.5320	0.9390
119.2102	-292.5320	0.9394
119.5122	-292.5320	0.9366
119.8135	-292.5320	0.9363
120.1152	-292.5320	0.9403
120.4157	-292.5320	0.9336
120.7170	-292.5320	0.9385
121.0181	-292.5320	0.9432
121.3180	-292.5320	0.9353
121.6194	-292.5320	0.9393
121.9189	-292.5320	0.9396
122.2206	-292.5320	0.9367
122.5223	-292.5320	0.9350
122.8218	-292.5320	0.9391
123.1221	-292.5320	0.9398
123.4229	-292.5320	0.9358
123.7227	-292.5320	0.9383
124.0227	-292.5320	0.9400
124.3237	-292.5320	0.9382
124.6257	-292.5320	0.9388
124.9257	-292.5320	0.9412
125.2273	-292.5320	0.9365
125.5291	-292.5320	0.9366
125.8295	-292.5320	0.9403
126.1290	-292.5320	0.9415
126.4292	-292.5320	0.9336
126.7292	-292.5320	0.9422
127.0303	-292.5320	0.9397
127.3316	-292.5320	0.9366
127.6320	-292.5320	0.9418
127.9323	-292.5320	0.9422
128.2324	-292.5320	0.9399
128.5335	-292.5320	0.9385
128.8348	-292.5320	0.9375
129.1354	-292.5320	0.9420
129.4361	-292.5320	0.9398
129.7362	-292.5320	0.9437
130.0388	-292.5320	0.9438
130.3391	-292.5320	0.9442
130.6392	-292.5320	0.9430
130.9408	-292.5320	0.9403
131.2422	-292.5320	0.9410
131.5420	-292.5320	0.9389
131.8418	-292.5320	0.9402
132.1429	-292.5320	0.9372
132.4448	-292.5320	0.9402
132.7474	-292.5320	0.9413
133.0489	-292.5320	0.9382
133.3496	-292.5320	0.9439
133.6514	-292.5320	0.9400
133.9524	-292.5320	0.9400
134.2531	-292.5320	0.9432
134.5531	-292.5320	0.9436
134.8565	-292.5320	0.9399
135.1582	-292.5320	0.9437
135.4616	-292.5320	0.9408
135.7827	-292.0000	0.9395
136.0829	-292.0000	0.9358
136.3841	-292.0000	0.9553
136.6843	-292.0000	0.9533
136.9845	-292.0000	0.9550
137.2839	-292.0000	0.9529
137.5845	-292.0000	0.9503
137.8851	-292.0000	0.9580
138.1877	-292.0000	0.9546
138.4880	-292.0000	0.9530
138.7898	-292.0000	0.9550
139.0903	-292.0000	0.9573
139.3921	-292.0000	0.9539
139.6937	-292.0000	0.9522
139.9960	-292.0000	0.9508
140.2971	-292.0000	0.9507
140.5981	-292.0000	0.9539
140.8978	-292.0000	0.9483
141.1989	-292.0000	0.9499
141.4997	-292.0000	0.9535
141.8019	-292.0000	0.9505
142.1041	-292.0000	0.9486
142.4053	-292.0000	0.9512
142.7051	-292.0000	0.9510
143.0055	-292.0000	0.9531
143.3050	-292.0000	0.9554
143.6059	-292.0000	0.9526
143.9074	-292.0000	0.9508
144.2079	-292.0000	0.9565
144.5105	-292.0000	0.9514
144.8122	-292.0000	0.9484
145.1122	-292.0000	0.9491
145.4125	-292.0000	0.9480
145.7129	-292.0000	0.9494
146.0136	-292.0000	0.9485
146.3147	-292.0000	0.9496
146.6159	-292.0000	0.9476
146.9171	-292.0000	0.9473
147.2188	-292.0000	0.9532
147.5205	-292.0000	0.9535
147.8214	-292.0000	0.9578
148.1229	-292.0000	0.9540
148.4247	-292.0000	0.9525
148.7242	-292.0000	0.9551
149.0276	-292.0000	0.9542
149.3282	-292.0000	0.9540
149.6301	-292.0000	0.9503
149.9328	-292.0000	0.9517
150.2336	-292.0000	0.9515
150.5340	-292.0000	0.9499
150.8356	-292.0000	0.9517
151.1357	-292.0000	0.9533
151.4362	-292.0000	0.9535
151.7374	-292.0000	0.9582
152.0375	-292.0000	0.9560
152.3373	-292.0000	0.9556
152.6372	-292.0000	0.9548
152.9376	-292.0000	0.9535
153.2378	-292.0000	0.9554
153.5372	-292.0000	0.9494
153.8370	-292.0000	0.9551
154.1389	-292.0000	0.9513
154.4409	-292.0000	0.9480
154.7403	-292.0000	0.9489
155.0402	-292.0000	0.9503
155.3410	-292.0000	0.9506
155.6437	-292.0000	0.9539
155.9467	-292.0000	0.9539
156.2473	-292.0000	0.9553
156.5487	-292.0000	0.9548
156.8498	-292.0000	0.9543
157.1499	-292.0000	0.9566
157.4507	-292.0000	0.9559
157.7516	-292.0000	0.9513
158.0510	-292.0000	0.9518
158.3511	-292.0000	0.9522
158.6511	-292.0000	0.9540
158.9526	-292.0000	0.9503
159.2538	-292.0000	0.9530
159.5537	-292.0000	0.9539
159.8547	-292.0000	0.9486
160.1561	-292.0000	0.9502
160.4563	-292.0000	0.9534
160.7567	-292.0000	0.9545
161.0564	-292.0000	0.9586
161.3581	-292.0000	0.9571
161.6603	-292.0000	0.9533
161.9610	-292.0000	0.9528
162.2604	-292.0000	0.9542
162.5609	-292.0000	0.9527
162.8622	-292.0000	0.9496
163.1634	-292.0000	0.9537
163.4648	-292.0000	0.9517
163.7655	-292.0000	0.9497
164.0670	-292.0000	0.9522
164.3668	-292.0000	0.9516
164.6680	-292.0000	0.9545
164.9686	-292.0000	0.9509
165.2698	-292.0000	0.9543
165.5721	-292.0000	0.9568
165.8725	-292.0000	0.9530
166.1728	-292.0000	0.9516
166.4729	-292.0000	0.9539
166.7722	-292.0000	0.9500
167.0724	-292.0000	0.9524
167.3728	-292.0000	0.9542
167.6727	-292.0000	0.9520
167.9729	-292.0000	0.9501
168.2726	-292.0000	0.9539
168.5728	-292.0000	0.9529
168.8751	-292.0000	0.9526
169.1751	-292.0000	0.9565
169.4765	-292.0000	0.9543
169.7778	-292.0000	0.9518
170.0778	-292.0000	0.9549
170.3802	-292.0000	0.9571
170.6819	-292.0000	0.9520
170.9829	-292.0000	0.9548
171.2824	-292.0000	0.9547
171.5829	-292.0000	0.9533
171.8834	-292.0000	0.9581
172.1859	-292.0000	0.9611
172.4855	-292.0000	0.9532
172.7856	-292.0000	0.9541
173.0857	-292.0000	0.9535
173.3872	-292.0000	0.9527
173.6873	-292.0000	0.9535
173.9877	-292.0000	0.9548
174.2880	-292.0000	0.9531
174.5878	-292.0000	0.9534
174.8878	-292.0000	0.9521
175.1892	-292.0000	0.9552
175.4888	-292.0000	0.9530
175.7904	-292.0000	0.9521
176.0905	-292.0000	0.9597
176.3919	-292.0000	0.9526
176.6916	-292.0000	0.9543
176.9929	-292.0000	0.9574
177.2967	-292.0000	0.9553
177.5981	-292.0000	0.9511
177.8983	-292.0000	0.9570
178.1998	-292.0000	0.9538
178.5019	-292.0000	0.9558
178.8025	-292.0000	0.9541
179.1047	-292.0000	0.9587
179.4060	-292.0000	0.9500
179.7054	-292.0000	0.9544
180.0056	-292.0000	0.9554
180.3069	-292.0000	0.9459
180.6069	-292.0000	0.9485
180.9068	-292.0000	0.9513
181.2075	-292.0000	0.9498
181.5074	-292.0000	0.9565
181.8085	-292.0000	0.9567
182.1089	-292.0000	0.9572
182.4106	-292.0000	0.9525
182.7106	-292.0000	0.9562
183.0127	-292.0000	0.9563
183.3128	-292.0000	0.9512
183.6147	-292.0000	0.9572
183.9152	-292.0000	0.9594
184.2153	-292.0000	0.9585
184.5160	-292.0000	0.9514
184.8156	-292.0000	0.9553
185.1175	-292.0000	0.9518
185.4184	-292.0000	0.9554
185.7220	-292.0000	0.9547
186.0262	-292.0000	0.9528
186.3273	-292.0000	0.9522
186.6294	-292.0000	0.9532
186.9306	-292.0000	0.9583
187.2330	-292.0000	0.9578
187.5337	-292.0000	0.9550
187.8352	-292.0000	0.9575
188.1370	-292.0000	0.9547
188.4390	-292.0000	0.9548
188.7411	-292.0000	0.9547
189.0426	-292.0000	0.9556
189.3436	-292.0000	0.9535
189.6443	-292.0000	0.9519
189.9455	-292.0000	0.9546
190.2470	-292.0000	0.9522
190.5470	-292.0000	0.9494
190.8483	-292.0000	0.9498
191.1490	-292.0000	0.9495
191.4504	-292.0000	0.9434
191.7511	-292.0000	0.9475
192.0505	-292.0000	0.9474
192.3508	-292.0000	0.9484
192.6508	-292.0000	0.9468
192.9508	-292.0000	0.9475
193.2531	-292.0000	0.9479
193.5528	-292.0000	0.9523
193.8537	-292.0000	0.9562
194.1552	-292.0000	0.9545
194.4551	-292.0000	0.9534
194.7549	-292.0000	0.9548
195.0551	-292.0000	0.9585
195.3553	-292.0000	0.9586
195.6575	-292.0000	0.9547
195.9581	-292.0000	0.9564
196.2591	-292.0000	0.9563
196.5611	-292.0000	0.9572
196.8623	-292.0000	0.9550
197.1648	-292.0000	0.9565
197.4675	-292.0000	0.9498
197.7667	-292.0000	0.9539
198.0669	-292.0000	0.9548
198.3671	-292.0000	0.9507
198.6674	-292.0000	0.9476
198.9667	-292.0000	0.9568
199.2667	-292.0000	0.9543
199.5674	-292.0000	0.9562
199.8677	-292.0000	0.9530
200.1681	-292.0000	0.9510
200.4686	-292.0000	0.9519
200.7682	-292.0000	0.9538
201.0681	-292.0000	0.9518
201.3695	-292.0000	0.9531
201.6690	-292.0000	0.9502
201.9711	-292.0000	0.9530
202.2724	-292.0000	0.9552
202.5738	-292.0000	0.9555
202.8755	-292.0000	0.9541
203.1747	-292.0000	0.9558
203.4770	-292.0000	0.9563
203.7767	-292.0000	0.9530
204.0793	-292.0000	0.9527
204.3816	-292.0000	0.9529
204.6817	-292.0000	0.9537
204.9843	-292.0000	0.9522
205.2855	-292.0000	0.9518
205.5853	-292.0000	0.9525
205.8848	-292.0000	0.9541
206.1850	-292.0000	0.9543
206.4850	-292.0000	0.9527
206.7861	-292.0000	0.9513
207.0879	-292.0000	0.9517
207.3896	-292.0000	0.9543
207.6890	-292.0000	0.9531
207.9902	-292.0000	0.9537
208.2903	-292.0000	0.9570
208.5906	-292.0000	0.9560
208.8915	-292.0000	0.9546
209.1917	-292.0000	0.9560
209.4921	-292.0000	0.9555
209.7932	-292.0000	0.9516
210.0939	-292.0000	0.9558
210.3965	-292.0000	0.9564
210.6987	-292.0000	0.9557
210.9993	-292.0000	0.9541
211.2998	-292.0000	0.9596
211.6000	-292.0000	0.9571
211.9015	-292.0000	0.9547
212.2033	-292.0000	0.9600
212.5039	-292.0000	0.9545
212.8060	-292.0000	0.9541
213.1069	-292.0000	0.9580
213.4076	-292.0000	0.9547
213.7070	-292.0000	0.9521
214.0078	-292.0000	0.9557
214.3094	-292.0000	0.9520
214.6096	-292.0000	0.9585
214.9093	-292.0000	0.9599
215.2093	-292.0000	0.9562
215.5088	-292.0000	0.9569
215.8107	-292.0000	0.9569
216.1114	-292.0000	0.9578
216.4111	-292.0000	0.9548
216.7120	-292.0000	0.9542
217.0124	-292.0000	0.9554
217.3346	-293.2310	0.9544
217.6348	-295.2510	0.9507
217.9363	-297.2330	0.9292
218.2367	-299.2500	0.8761
218.5376	-300.0010	0.8052
218.8381	-300.0010	0.7096
219.1388	-300.0010	0.6521
219.4407	-300.0000	0.6590
219.7401	-300.0000	0.6588
220.0411	-300.0000	0.6612
220.3412	-300.0000	0.6636
220.6427	-300.0000	0.6635
220.9426	-300.0000	0.6660
221.2434	-300.0000	0.6653
221.5445	-300.0000	0.6680
221.8458	-300.0000	0.6660
222.1454	-300.0000	0.6672
222.4471	-300.0000	0.6686
222.7486	-300.0000	0.6660
223.0503	-300.0000	0.6707
223.3517	-300.0000	0.6688
223.6539	-300.0000	0.6703
223.9553	-300.0000	0.6704
224.2564	-300.0000	0.6696
224.5578	-300.0000	0.6715
224.8580	-300.0000	0.6694
225.1605	-300.0000	0.6734
225.4615	-300.0000	0.6708
225.7613	-300.0000	0.6693
226.0618	-300.0000	0.6714
226.3619	-300.0000	0.6711
226.6627	-300.0000	0.6715
226.9632	-300.0000	0.6727
227.2637	-300.0000	0.6734
227.5659	-300.0000	0.6716
227.8652	-300.0000	0.6752
228.1665	-300.0000	0.6684
228.4664	-300.0000	0.6737
228.7663	-300.0000	0.6752
229.0664	-300.0000	0.6726
229.3670	-300.0000	0.6772
229.6679	-300.0000	0.6778
229.9675	-300.0000	0.6748
230.2702	-300.0000	0.6751
230.5913	-300.5530	0.6761
230.8913	-302.5720	0.6747
231.1928	-304.5550	0.6589
231.4935	-306.5740	0.5157
231.7930	-308.5560	0.3033
232.0933	-310.5730	0.0147
232.3937	-312.5550	-0.3934
232.6943	-314.5720	-0.9742
232.9956	-316.5880	-1.8055
233.2961	-316.8010	-3.0299
233.5987	-316.8010	-4.8304
233.8993	-316.8010	-5.2203
234.1995	-316.8000	-4.7783
234.5000	-316.8000	-4.5835
234.8013	-316.8000	-4.4515
235.1029	-316.8000	-4.3605
235.4038	-316.8000	-4.2914
235.7039	-316.8000	-4.2339
236.0043	-316.8000	-4.1841
236.3047	-316.8000	-4.1418
236.6071	-316.8000	-4.1034
236.9073	-316.8000	-4.0718
237.2097	-316.8000	-4.0411
237.5116	-316.8000	-4.0119
237.8130	-316.8000	-3.9856
238.1147	-316.8000	-3.9661
238.4163	-316.8000	-3.9457
238.7189	-316.8000	-3.9253
239.0202	-316.8000	-3.9096
239.3227	-316.8000	-3.8912
239.6227	-316.8000	-3.8719
239.9222	-316.8000	-3.8553
240.2235	-316.8000	-3.8404
240.5262	-316.8000	-3.8290
240.8270	-316.8000	-3.8173
241.1281	-316.8000	-3.8048
241.4298	-316.8000	-3.7961
241.7297	-316.8000	-3.7806
242.0311	-316.8000	-3.7730
242.3317	-316.8000	-3.7585
242.6314	-316.8000	-3.7506
242.9314	-316.8000	-3.7405
243.2327	-316.8000	-3.7326
243.5334	-316.8000	-3.7231
243.8339	-316.8000	-3.7177
244.1351	-316.8000	-3.7043
244.4353	-316.8000	-3.6977
244.7352	-316.8000	-3.6871
245.0361	-316.8000	-3.6797
245.3379	-316.8000	-3.6698
245.6387	-316.8000	-3.6634
245.9397	-316.8000	-3.6604
246.2414	-316.8000	-3.6498
246.5438	-316.8000	-3.6446
246.8438	-316.8000	-3.6397
247.1438	-316.8000	-3.6332
247.4449	-316.8000	-3.6282
247.7458	-316.8000	-3.6218
248.0463	-316.8000	-3.6126
248.3475	-316.8000	-3.6065
248.6477	-316.8000	-3.6001
248.9474	-316.8000	-3.5973
249.2476	-316.8000	-3.5935
249.5483	-316.8000	-3.5868
249.8501	-316.8000	-3.5799
250.1512	-316.8000	-3.5727
250.4508	-316.8000	-3.5719
250.7515	-316.8000	-3.5665
251.0520	-316.8000	-3.5609
251.3529	-316.8000	-3.5591
251.6542	-316.8000	-3.5522
251.9535	-316.8000	-3.5484
252.2563	-316.8000	-3.5391
252.5574	-316.8000	-3.5373
252.8602	-316.8000	-3.5322
253.1598	-316.8000	-3.5273
253.4608	-316.8000	-3.5249
253.7620	-316.8000	-3.5247
254.0621	-316.8000	-3.5205
254.3635	-316.8000	-3.5143
254.6648	-316.8000	-3.5120
254.9677	-316.8000	-3.5088
255.2679	-316.8000	-3.5036
255.5676	-316.8000	-3.4999
255.8689	-316.8000	-3.4967
256.1688	-316.8000	-3.4908
256.4694	-316.8000	-3.4890
256.7694	-316.8000	-3.4867
257.0723	-316.8000	-3.4806
257.3716	-316.8000	-3.4802
257.6732	-316.8000	-3.4775
257.9729	-316.8000	-3.4748
258.2752	-316.8000	-3.4704
258.5747	-316.8000	-3.4630
258.8745	-316.8000	-3.4638
259.1751	-316.8000	-3.4593
259.4743	-316.8000	-3.4558
259.7746	-316.8000	-3.4525
260.0757	-316.8000	-3.4491
260.3766	-316.8000	-3.4414
260.6776	-316.8000	-3.4424
260.9792	-316.8000	-3.4401
261.2806	-316.8000	-3.4391
261.5817	-316.8000	-3.4358
261.8831	-316.8000	-3.4286
262.1839	-316.8000	-3.4301
262.4837	-316.8000	-3.4287
262.7838	-316.8000	-3.4238
263.0854	-316.8000	-3.4238
263.3866	-316.8000	-3.4178
263.6866	-316.8000	-3.4195
263.9873	-316.8000	-3.4118
264.2874	-316.8000	-3.4103
264.5883	-316.8000	-3.4075
264.8875	-316.8000	-3.4048
265.1890	-316.8000	-3.4044
265.4898	-316.8000	-3.3993
265.7905	-316.8000	-3.3979
266.0917	-316.8000	-3.3977
266.3911	-316.8000	-3.3958
266.6915	-316.8000	-3.3946
266.9940	-316.8000	-3.3870
267.2972	-316.8000	-3.3878
267.5977	-316.8000	-3.3868
267.9011	-316.8000	-3.3842
268.1995	-316.8000	-3.3815
268.5020	-316.8000	-3.3789
268.8036	-316.8000	-3.3760
269.1063	-316.8000	-3.3742
269.4070	-316.8000	-3.3671
269.7090	-316.8000	-3.3651
270.0088	-316.8000	-3.3669
270.3110	-316.8000	-3.3643
270.6110	-316.8000	-3.3625
270.9131	-316.8000	-3.3588
271.2140	-316.8000	-3.3586
271.5141	-316.8000	-3.3556
271.8144	-316.8000	-3.3566
272.1151	-316.8000	-3.3516
272.4146	-316.8000	-3.3488
272.7152	-316.8000	-3.3481
273.0157	-316.8000	-3.3500
273.3168	-316.8000	-3.3451
273.6194	-316.8000	-3.3417
273.9201	-316.8000	-3.3390
274.2199	-316.8000	-3.3372
274.5197	-316.8000	-3.3387
274.8215	-316.8000	-3.3376
275.1207	-316.8000	-3.3342
275.4215	-316.8000	-3.3350
275.7241	-316.8000	-3.3326
276.0239	-316.8000	-3.3310
276.3246	-316.8000	-3.3298
276.6253	-316.8000	-3.3285
276.9263	-316.8000	-3.3255
277.2272	-316.8000	-3.3227
277.5278	-316.8000	-3.3225
277.8291	-316.8000	-3.3182
278.1288	-316.8000	-3.3136
278.4301	-316.8000	-3.3131
278.7315	-316.8000	-3.3132
279.0323	-316.8000	-3.3085
279.3318	-316.8000	-3.3064
279.6319	-316.8000	-3.3076
279.9335	-316.8000	-3.3061
280.2343	-316.8000	-3.3025
280.5338	-316.8000	-3.3002
280.8352	-316.8000	-3.3021
281.1350	-316.8000	-3.3016
281.4365	-316.8000	-3.2993
281.7360	-316.8000	-3.2988
282.0374	-316.8000	-3.2984
282.3381	-316.8000	-3.2941
282.6398	-316.8000	-3.2919
282.9413	-316.8000	-3.2924
283.2410	-316.8000	-3.2931
283.5433	-316.8000	-3.2869
283.8440	-316.8000	-3.2882
284.1454	-316.8000	-3.2864
284.4455	-316.8000	-3.2806
284.7455	-316.8000	-3.2861
285.0460	-316.8000	-3.2783
285.3483	-316.8000	-3.2775
285.6484	-316.8000	-3.2782
285.9506	-316.8000	-3.2770
286.2516	-316.8000	-3.2731
286.5528	-316.8000	-3.2751
286.8549	-316.8000	-3.2729
287.1572	-316.8000	-3.2733
287.4567	-316.8000	-3.2727
287.7590	-316.8000	-3.2677
288.0591	-316.8000	-3.2682
288.3592	-316.8000	-3.2666
288.6597	-316.8000	-3.2679
288.9611	-316.8000	-3.2658
289.2614	-316.8000	-3.2637
289.5620	-316.8000	-3.2620
289.8620	-316.8000	-3.2596
290.1644	-316.8000	-3.2601
290.4649	-316.8000	-3.2610
290.7662	-316.8000	-3.2585
291.0661	-316.8000	-3.2563
291.3667	-316.8000	-3.2572
291.6674	-316.8000	-3.2522
291.9684	-316.8000	-3.2533
292.2715	-316.8000	-3.2519
292.5710	-316.8000	-3.2497
292.8744	-316.8000	-3.2488
293.1757	-316.8000	-3.2447
293.4749	-316.8000	-3.2459
293.7761	-316.8000	-3.2428
294.0760	-316.8000	-3.2428
294.3778	-316.8000	-3.2422
294.6783	-316.8000	-3.2418
294.9794	-316.8000	-3.2389
295.2793	-316.8000	-3.2409
295.5797	-316.8000	-3.2373
295.8799	-316.8000	-3.2364
296.1799	-316.8000	-3.2357
296.4816	-316.8000	-3.2341
296.7827	-316.8000	-3.2364
297.0824	-316.8000	-3.2318
297.3842	-316.8000	-3.2302
297.6844	-316.8000	-3.2296
297.9859	-316.8000	-3.2273
298.2864	-316.8000	-3.2250
298.5865	-316.8000	-3.2245
298.8889	-316.8000	-3.2234
299.1893	-316.8000	-3.2261
299.4904	-316.8000	-3.2241
299.7918	-316.8000	-3.2230
300.0948	-316.8000	-3.2223
300.3944	-316.8000	-3.2194
300.6950	-316.8000	-3.2178
300.9959	-316.8000	-3.2182
301.2977	-316.8000	-3.2165
301.5980	-316.8000	-3.2165
301.8986	-316.8000	-3.2114
302.1992	-316.8000	-3.2102
302.4985	-316.8000	-3.2083
302.7981	-316.8000	-3.2058
303.0998	-316.8000	-3.2056
303.3999	-316.8000	-3.2029
303.7006	-316.8000	-3.2066
304.0010	-316.8000	-3.2045
304.3014	-316.8000	-3.2055
304.6036	-316.8000	-3.2023
304.9036	-316.8000	-3.2040
305.2044	-316.8000	-3.2053
305.5056	-316.8000	-3.2039
305.8058	-316.8000	-3.1972
306.1065	-316.8000	-3.2001
306.4080	-316.8000	-3.1995
306.7098	-316.8000	-3.1964
307.0091	-316.8000	-3.1992
307.3101	-316.8000	-3.1958
307.6125	-316.8000	-3.1944
307.9125	-316.8000	-3.1920
308.2130	-316.8000	-3.1917
308.5143	-316.8000	-3.1921
308.8146	-316.8000	-3.1893
309.1168	-316.8000	-3.1851
309.4190	-316.8000	-3.1865
309.7198	-316.8000	-3.1854
310.0209	-316.8000	-3.1861
310.3217	-316.8000	-3.1860
310.6215	-316.8000	-3.1833
310.9230	-316.8000	-3.1846
311.2246	-316.8000	-3.1821
311.5247	-316.8000	-3.1781
311.8246	-316.8000	-3.1816
312.1246	-316.8000	-3.1803
312.4254	-316.8000	-3.1810
312.7255	-316.8000	-3.1803
313.0271	-316.8000	-3.1785
313.3275	-316.8000	-3.1795
313.6272	-316.8000	-3.1804
313.9287	-316.8000	-3.1797
314.2306	-316.8000	-3.1742
314.5318	-316.8000	-3.1742
314.8327	-316.8000	-3.1721
315.1335	-316.8000	-3.1741
315.4349	-316.8000	-3.1736
315.7361	-316.8000	-3.1718
316.0375	-316.8000	-3.1698
316.3397	-316.8000	-3.1689
316.6399	-316.8000	-3.1661
316.9411	-316.8000	-3.1657
317.2414	-316.8000	-3.1644
317.5415	-316.8000	-3.1674
317.8415	-316.8000	-3.1663
318.1434	-316.8000	-3.1675
318.4437	-316.8000	-3.1661
318.7438	-316.8000	-3.1615
319.0443	-316.8000	-3.1611
319.3445	-316.8000	-3.1579
319.6458	-316.8000	-3.1611
319.9456	-316.8000	-3.1613
320.2466	-316.8000	-3.1584
320.5470	-316.8000	-3.1551
320.8462	-316.8000	-3.1572
321.1469	-316.8000	-3.1559
321.4477	-316.8000	-3.1550
321.7481	-316.8000	-3.1542
322.0478	-316.8000	-3.1533
322.3497	-316.8000	-3.1546
322.6524	-316.8000	-3.1565
322.9532	-316.8000	-3.1539
323.2532	-316.8000	-3.1529
323.5561	-316.8000	-3.1502
323.8561	-316.8000	-3.1496
324.1560	-316.8000	-3.1505
324.4561	-316.8000	-3.1472
324.7558	-316.8000	-3.1456
325.0561	-316.8000	-3.1443
325.3560	-316.8000	-3.1444
325.6560	-316.8000	-3.1435
325.9553	-316.8000	-3.1469
326.2569	-316.8000	-3.1466
326.5573	-316.8000	-3.1421
326.8574	-316.8000	-3.1398
327.1582	-316.8000	-3.1394
327.4598	-316.8000	-3.1411
327.7621	-316.8000	-3.1381
328.0624	-316.8000	-3.1409
328.3635	-316.8000	-3.1392
328.6648	-316.8000	-3.1387
328.9655	-316.8000	-3.1362
329.2660	-316.8000	-3.1370
329.5661	-316.8000	-3.1338
329.8674	-316.8000	-3.1354
330.1676	-316.8000	-3.1308
330.4678	-316.8000	-3.1318
330.7702	-316.8000	-3.1296
331.0715	-316.8000	-3.1282
331.3714	-316.8000	-3.1305
331.6718	-316.8000	-3.1288
331.9722	-316.8000	-3.1272
332.2728	-316.8000	-3.1277
332.5725	-316.8000	-3.1300
332.8731	-316.8000	-3.1279
333.1725	-316.8000	-3.1276
333.4729	-316.8000	-3.1270
333.7741	-316.8000	-3.1270
334.0741	-316.8000	-3.1244
334.3749	-316.8000	-3.1221
334.6748	-316.8000	-3.1249
334.9757	-316.8000	-3.1234
335.2768	-316.8000	-3.1198
335.5782	-316.8000	-3.1212
335.8786	-316.8000	-3.1175
336.1799	-316.8000	-3.1177
336.4829	-316.8000	-3.1169
336.7843	-316.8000	-3.1183
337.0854	-316.8000	-3.1187
337.3880	-316.8000	-3.1199
337.6878	-316.8000	-3.1187
337.9878	-316.8000	-3.1176
338.2884	-316.8000	-3.1166
338.5892	-316.8000	-3.1135
338.8910	-316.8000	-3.1156
339.1907	-316.8000	-3.1150
339.4905	-316.8000	-3.1148
339.7916	-316.8000	-3.1135
340.0920	-316.8000	-3.1123
340.3915	-316.8000	-3.1087
340.6922	-316.8000	-3.1105
340.9917	-316.8000	-3.1113
341.2916	-316.8000	-3.1073
341.5927	-316.8000	-3.1082
341.8940	-316.8000	-3.1091
342.1949	-316.8000	-3.1089
342.4958	-316.8000	-3.1050
342.7972	-316.8000	-3.1036
343.0984	-316.8000	-3.1057
343.3989	-316.8000	-3.1017
343.7001	-316.8000	-3.1019
344.0022	-316.8000	-3.1016
344.3022	-316.8000	-3.0996
344.6020	-316.8000	-3.0990
344.9036	-316.8000	-3.1026
345.2047	-316.8000	-3.0992
345.5045	-316.8000	-3.0989
345.8050	-316.8000	-3.0983
346.1052	-316.8000	-3.0988
346.4056	-316.8000	-3.0986
346.7059	-316.8000	-3.0988
347.0082	-316.8000	-3.0968
347.3079	-316.8000	-3.0977
347.6085	-316.8000	-3.0973
347.9093	-316.8000	-3.0965
348.2111	-316.8000	-3.0975
348.5126	-316.8000	-3.1008
348.8137	-316.8000	-3.0983
349.1148	-316.8000	-3.0941
349.4160	-316.8000	-3.0936
349.7158	-316.8000	-3.0905
350.0167	-316.8000	-3.0898
350.3181	-316.8000	-3.0916
350.6194	-316.8000	-3.0923
350.9201	-316.8000	-3.0873
351.2206	-316.8000	-3.0887
351.5222	-316.8000	-3.0879
351.8244	-316.8000	-3.0882
352.1246	-316.8000	-3.0885
352.4249	-316.8000	-3.0865
352.7248	-316.8000	-3.0883
353.0252	-316.8000	-3.0868
353.3253	-316.8000	-3.0886
353.6252	-316.8000	-3.0855
353.9247	-316.8000	-3.0824
354.2246	-316.8000	-3.0824
354.5265	-316.8000	-3.0835
354.8269	-316.8000	-3.0817
355.1281	-316.8000	-3.0822
355.4293	-316.8000	-3.0832
355.7303	-316.8000	-3.0807
356.0298	-316.8000	-3.0803
356.3299	-316.8000	-3.0793
356.6304	-316.8000	-3.0783
356.9309	-316.8000	-3.0780
357.2326	-316.8000	-3.0776
357.5330	-316.8000	-3.0778
357.8331	-316.8000	-3.0774
358.1345	-316.8000	-3.0749
358.4351	-316.8000	-3.0737
358.7365	-316.8000	-3.0734
359.0368	-316.8000	-3.0737
359.3374	-316.8000	-3.0749
359.6391	-316.8000	-3.0743
359.9396	-316.8000	-3.0716
360.2399	-316.8000	-3.0711
360.5413	-316.8000	-3.0709
360.8412	-316.8000	-3.0707
361.1417	-316.8000	-3.0712
361.4429	-316.8000	-3.0709
361.7446	-316.8000	-3.0664
362.0450	-316.8000	-3.0701
362.3452	-316.8000	-3.0695
362.6452	-316.8000	-3.0708
362.9459	-316.8000	-3.0685
363.2481	-316.8000	-3.0662
363.5506	-316.8000	-3.0664
363.8517	-316.8000	-3.0643
364.1526	-316.8000	-3.0631
364.4528	-316.8000	-3.0648
364.7530	-316.8000	-3.0656
365.0551	-316.8000	-3.0628
365.3551	-316.8000	-3.0601
365.6560	-316.8000	-3.0625
365.9577	-316.8000	-3.0635
366.2600	-316.8000	-3.0634
366.5623	-316.8000	-3.0617
366.8628	-316.8000	-3.0598
367.1631	-316.8000	-3.0598
367.4656	-316.8000	-3.0601
367.7666	-316.8000	-3.0577
368.0672	-316.8000	-3.0569
368.3686	-316.8000	-3.0559
368.6682	-316.8000	-3.0555
368.9678	-316.8000	-3.0561
369.2682	-316.8000	-3.0533
369.5689	-316.8000	-3.0552
369.8688	-316.8000	-3.0556
370.1697	-316.8000	-3.0564
370.4701	-316.8000	-3.0574
370.7701	-316.8000	-3.0485
371.0701	-316.8000	-3.0547
371.3724	-316.8000	-3.0540
371.6728	-316.8000	-3.0546
371.9730	-316.8000	-3.0522
372.2731	-316.8000	-3.0518
372.5738	-316.8000	-3.0529
372.8758	-316.8000	-3.0523
373.1767	-316.8000	-3.0524
373.4766	-316.8000	-3.0477
373.7760	-316.8000	-3.0514
374.0768	-316.8000	-3.0534
374.3768	-316.8000	-3.0485
374.6793	-316.8000	-3.0499
374.9823	-316.8000	-3.0529
375.2826	-316.8000	-3.0513
375.5831	-316.8000	-3.0472
375.8859	-316.8000	-3.0445
376.1887	-316.8000	-3.0451
376.4880	-316.8000	-3.0481
376.7902	-316.8000	-3.0459
377.0900	-316.8000	-3.0451
377.3898	-316.8000	-3.0444
377.6908	-316.8000	-3.0428
377.9910	-316.8000	-3.0426
378.2914	-316.8000	-3.0445
378.5920	-316.8000	-3.0410
378.8928	-316.8000	-3.0441
379.1928	-316.8000	-3.0410
379.4940	-316.8000	-3.0409
379.7953	-316.8000	-3.0383
380.0953	-316.8000	-3.0393
380.3966	-316.8000	-3.0406
380.6977	-316.8000	-3.0421
380.9973	-316.8000	-3.0440
381.2990	-316.8000	-3.0364
381.6008	-316.8000	-3.0364
381.9019	-316.8000	-3.0365
382.2021	-316.8000	-3.0370
382.5033	-316.8000	-3.0372
382.8035	-316.8000	-3.0359
383.1037	-316.8000	-3.0366
383.4032	-316.8000	-3.0355
383.7033	-316.8000	-3.0371
384.0032	-316.8000	-3.0378
384.3035	-316.8000	-3.0362
384.6044	-316.8000	-3.0346
384.9056	-316.8000	-3.0365
385.2071	-316.8000	-3.0318
385.5087	-316.8000	-3.0305
385.8086	-316.8000	-3.0337
386.1101	-316.8000	-3.0322
386.4104	-316.8000	-3.0293
386.7118	-316.8000	-3.0300
387.0114	-316.8000	-3.0310
387.3114	-316.8000	-3.0305
387.6121	-316.8000	-3.0278
387.9125	-316.8000	-3.0289
388.2129	-316.8000	-3.0296
388.5139	-316.8000	-3.0293
388.8150	-316.8000	-3.0315
389.1170	-316.8000	-3.0276
389.4171	-316.8000	-3.0301
389.7184	-316.8000	-3.0316
390.0199	-316.8000	-3.0298
390.3209	-316.8000	-3.0319
390.6202	-316.8000	-3.0295
390.9218	-316.8000	-3.0292
391.2221	-316.8000	-3.0246
391.5229	-316.8000	-3.0254
391.8220	-316.8000	-3.0250
392.1246	-316.8000	-3.0265
392.4266	-316.8000	-3.0242
392.7278	-316.8000	-3.0232
393.0281	-316.8000	-3.0244
393.3286	-316.8000	-3.0239
393.6305	-316.8000	-3.0228
393.9302	-316.8000	-3.0200
394.2315	-316.8000	-3.0204
394.5335	-316.8000	-3.0218
394.8334	-316.8000	-3.0204
395.1344	-316.8000	-3.0173
395.4356	-316.8000	-3.0173
395.7371	-316.8000	-3.0203
396.0361	-316.8000	-3.0163
396.3371	-316.8000	-3.0183
396.6382	-316.8000	-3.0172
396.9400	-316.8000	-3.0191
397.2395	-316.8000	-3.0176
397.5401	-316.8000	-3.0161
397.8410	-316.8000	-3.0170
398.1407	-316.8000	-3.0155
398.4405	-316.8000	-3.0143
398.7406	-316.8000	-3.0170
399.0403	-316.8000	-3.0152
399.3412	-316.8000	-3.0130
399.6416	-316.8000	-3.0172
399.9422	-316.8000	-3.0181
400.2434	-316.8000	-3.0121
400.5433	-316.8000	-3.0127
400.8433	-316.8000	-3.0136
401.1436	-316.8000	-3.0128
401.4434	-316.8000	-3.0120
401.7442	-316.8000	-3.0101
402.0465	-316.8000	-3.0124
402.3465	-316.8000	-3.0117
402.6481	-316.8000	-3.0100
402.9475	-316.8000	-3.0087
403.2488	-316.8000	-3.0059
403.5508	-316.8000	-3.0098
403.8505	-316.8000	-3.0106
404.1506	-316.8000	-3.0089
404.4512	-316.8000	-3.0074
404.7513	-316.8000	-3.0118
405.0522	-316.8000	-3.0055
405.3533	-316.8000	-3.0072
405.6547	-316.8000	-3.0079
405.9559	-316.8000	-3.0042
406.2559	-316.8000	-3.0066
406.5580	-316.8000	-3.0062
406.8580	-316.8000	-3.0046
407.1579	-316.8000	-3.0054
407.4576	-316.8000	-3.0109
407.7607	-316.8000	-3.0057
408.0618	-316.8000	-3.0056
408.3614	-316.8000	-3.0031
408.6627	-316.8000	-3.0036
408.9657	-316.8000	-3.0063
409.2671	-316.8000	-3.0015
409.5677	-316.8000	-2.9998
409.8682	-316.8000	-3.0021
410.1694	-316.8000	-3.0010
410.4697	-316.8000	-3.0007
410.7711	-316.8000	-3.0008
411.0712	-316.8000	-3.0013
411.3705	-316.8000	-3.0019
411.6707	-316.8000	-2.9997
411.9713	-316.8000	-3.0005
412.2731	-316.8000	-2.9993
412.5736	-316.8000	-3.0000
412.8735	-316.8000	-2.9979
413.1746	-316.8000	-2.9957
413.4757	-316.8000	-2.9917
413.7757	-316.8000	-2.9972
414.0757	-316.8000	-2.9960
414.3773	-316.8000	-2.9942
414.5774	-316.8000	-2.9968