File: Tinius-Olsen_Levitation_force/Measurements/20231127_1023calibration.txt
27/11/2023 10:23:50 am
Time(s)	Displacement(mm) Force(N)
0.0000	50.0000	-0.3448
0.4480	50.0000	-0.3431
0.8490	50.0000	-0.3439
1.2491	50.0000	-0.3436
1.6509	50.0000	-0.3445
2.0516	50.0000	-0.3452
2.4528	50.0000	-0.3460
2.8541	50.0000	-0.3452
3.2569	50.0000	-0.3450
3.6564	50.0000	-0.3443
4.0580	50.0000	-0.3448
4.4590	50.0000	-0.3429
4.8607	50.0000	-0.3455
5.2627	50.0000	-0.3442
5.6639	50.0000	-0.3447
6.0644	50.0000	-0.3437
6.4643	50.0000	-0.3454
6.8669	50.0000	-0.3451
7.2676	50.0000	-0.3447
7.6686	50.0000	-0.3453
8.0698	50.0000	-0.3461
8.4715	50.0000	-0.3435
8.8740	50.0000	-0.3468
9.2744	50.0000	-0.3441
9.6745	50.0000	-0.3423
10.0760	50.0000	-0.3442
10.4761	50.0000	-0.3454
10.8777	50.0000	-0.3451
11.2772	50.0000	-0.3434
11.6783	50.0000	-0.3430
12.0784	50.0000	-0.3465
12.4813	50.0000	-0.3449
12.8821	50.0000	-0.3451
13.2843	50.0000	-0.3437
13.6845	50.0000	-0.3446
14.0861	50.0000	-0.3434
14.4862	50.0000	-0.3429
14.8868	50.0000	-0.3440
15.2880	50.0000	-0.3451
15.6887	50.0000	-0.3443
16.0901	50.0000	-0.3442
16.4912	50.0000	-0.3448
16.8918	50.0000	-0.3449
17.2941	50.0000	-0.3445
17.6943	50.0000	-0.3450
18.0960	50.0000	-0.3429
18.4965	50.0000	-0.3445
18.8963	50.0000	-0.3439
19.2962	50.0000	-0.3443
19.6965	50.0000	-0.3433
20.0962	50.0000	-0.3449
20.4983	50.0000	-0.3418
20.9006	50.0000	-0.3440
21.3021	50.0000	-0.3433
21.7036	50.0000	-0.3441
22.1038	50.0000	-0.3441
22.5046	50.0000	-0.3462
22.9064	50.0000	-0.3438
23.3080	50.0000	-0.3440
23.7089	50.0000	-0.3439
24.1096	50.0000	-0.3450
24.5095	50.0000	-0.3445
24.9106	50.0000	-0.3437
25.3110	50.0000	-0.3436
25.7115	50.0000	-0.3427
26.1142	50.0000	-0.3432
26.5153	50.0000	-0.3448
26.9174	50.0000	-0.3447
27.3199	50.0000	-0.3442
27.7202	50.0000	-0.3442
28.1204	50.0000	-0.3444
28.5213	50.0000	-0.3435
28.9219	50.0000	-0.3448
29.3222	50.0000	-0.3439
29.7243	50.0000	-0.3457
30.1246	50.0000	-0.3446
30.5246	50.0000	-0.3454
30.9245	50.0000	-0.3446
31.3245	50.0000	-0.4350
31.7246	50.0000	-0.9041
32.1260	50.0000	-0.8424
32.5257	50.0000	-1.7880
32.9264	50.0000	-1.3641
33.3276	50.0000	-0.6926
33.7274	50.0000	-0.8230
34.1285	50.0000	-1.3672
34.5314	50.0000	-1.5021
34.9322	50.0000	-1.6458
35.3333	50.0000	-1.8695
35.7347	50.0000	-1.3703
36.1354	50.0000	-0.4633
36.5371	50.0000	-1.8973
36.9373	50.0000	-1.6296
37.3384	50.0000	-1.9522
37.7405	50.0000	-0.9919
38.1423	50.0000	-0.4270
38.5447	50.0000	-1.1002
38.9447	50.0000	-0.8392
39.3457	50.0000	-0.5471
39.7455	50.0000	0.0328
40.1466	50.0000	-0.1720
40.5464	50.0000	-0.0006
40.9482	50.0000	0.7424
41.3484	50.0000	0.7637
41.7500	50.0000	0.6495
42.1509	50.0000	0.7525
42.5523	50.0000	0.7797
42.9541	50.0000	0.6171
43.3537	50.0000	0.7413
43.7535	50.0000	0.6287
44.1547	50.0000	0.7527
44.5574	50.0000	0.9754
44.9575	50.0000	0.7220
45.3597	50.0000	0.7538
45.7604	50.0000	0.7529
46.1615	50.0000	0.7060
46.5645	50.0000	0.5554
46.9647	50.0000	0.7001
47.3646	50.0000	0.5655
47.7659	50.0000	0.5492
48.1692	50.0000	1.7246
48.5690	50.0000	0.7113
48.9689	50.0000	1.2922
49.3700	50.0000	0.7570
49.7703	50.0000	0.7681
50.1702	50.0000	0.5999
50.5700	50.0000	0.6685
50.9714	50.0000	0.6776
51.3718	50.0000	0.6089
51.7723	50.0000	0.7772
52.1724	50.0000	0.8410
52.5724	50.0000	0.7603
52.9744	50.0000	0.8038
53.3750	50.0000	0.7249
53.7779	50.0000	0.7241
54.1780	50.0000	0.7248
54.5793	50.0000	0.7238
54.9796	50.0000	0.7242
55.3801	50.0000	0.7221
55.7797	50.0000	0.7234
56.1814	50.0000	0.7213
56.5821	50.0000	0.7236
56.9846	50.0000	0.7205
57.3849	50.0000	0.7232
57.7846	50.0000	0.7238
58.1857	50.0000	0.7243
58.5872	50.0000	0.7225
58.9897	50.0000	0.7223
59.3924	50.0000	0.7250
59.7925	50.0000	0.7220
60.1946	50.0000	0.7234
60.5947	50.0000	0.7239
60.9966	50.0000	0.7239
61.3977	50.0000	0.7234
61.7987	50.0000	0.7223
62.2002	50.0000	0.7227
62.6005	50.0000	0.7224
63.0013	50.0000	0.7240
63.4010	50.0000	0.7205
63.8007	50.0000	0.7245
64.2020	50.0000	0.7245
64.6026	50.0000	0.7229
65.0026	50.0000	0.7236
65.4025	50.0000	0.7216
65.8026	50.0000	0.7204
66.2037	50.0000	0.7210
66.6048	50.0000	0.7232
67.0074	50.0000	0.7213
67.4072	50.0000	0.7230
67.8071	50.0000	0.7227
68.2093	50.0000	0.7213
68.6107	50.0000	0.7195
69.0111	50.0000	0.7223
69.4116	50.0000	0.7222
69.8107	50.0000	0.7204
70.2126	50.0000	0.7205
70.6145	50.0000	0.7226
71.0147	50.0000	0.7221
71.4160	50.0000	0.7231
71.8172	50.0000	0.7215
72.2184	50.0000	0.7219
72.6192	50.0000	0.7225
73.0204	50.0000	0.7211
73.4204	50.0000	0.7220
73.8202	50.0000	0.7226
74.2215	50.0000	0.7208
74.6221	50.0000	0.7210
75.0226	50.0000	0.7202
75.4220	50.0000	0.7227
75.8250	50.0000	0.7221
76.2276	50.0000	0.7207
76.6271	50.0000	0.7218
77.0278	50.0000	0.7204
77.4297	50.0000	0.7226
77.8306	50.0000	0.7230
78.2298	50.0000	0.7205
78.6312	50.0000	0.7240
79.0310	50.0000	0.7227
79.4323	50.0000	0.7225
79.8327	50.0000	0.7199
80.2318	50.0000	0.7229
80.6327	50.0000	0.7215
81.0341	50.0000	0.7190
81.4342	50.0000	0.7200
81.8346	50.0000	0.7193
82.2377	50.0000	0.7195
82.6370	50.0000	0.7214
83.0388	50.0000	0.7216
83.4407	50.0000	0.7204
83.8415	50.0000	0.7210
84.2420	50.0000	0.7204
84.6430	50.0000	0.7258
85.0439	50.0000	0.7216
85.4440	50.0000	0.7211
85.8464	50.0000	0.7229
86.2459	50.0000	0.7204
86.6482	50.0000	0.7247
87.0485	50.0000	0.7231
87.4490	50.0000	0.7202
87.8495	50.0000	0.7217
88.2490	50.0000	0.7207
88.6508	50.0000	0.7226
89.0511	50.0000	0.7237
89.4511	50.0000	0.7211
89.8514	50.0000	0.7217
90.2518	50.0000	0.7202
90.6527	50.0000	0.7209
91.0527	50.0000	0.7216
91.4528	50.0000	0.7222
91.8536	50.0000	0.7229
92.2541	50.0000	0.7194
92.6541	50.0000	0.7216
93.0539	50.0000	0.7238
93.4561	50.0000	0.7240
93.8568	50.0000	0.7212
94.2574	50.0000	0.7234
94.6581	50.0000	0.7226
95.0600	50.0000	0.7235
95.4603	50.0000	0.7235
95.8607	50.0000	0.7239
96.2610	50.0000	0.7228
96.6618	50.0000	0.7200
97.0628	50.0000	0.7246
97.4628	50.0000	0.7272
97.8628	50.0000	0.7222
98.2628	50.0000	0.7228
98.6625	50.0000	0.7220
99.0626	50.0000	0.7218
99.4624	50.0000	0.7235
99.8620	50.0000	0.7248
100.2629	50.0000	0.7257
100.6640	50.0000	0.7245
101.0653	50.0000	0.7255
101.4653	50.0000	0.7203
101.8657	50.0000	0.7253
102.2660	50.0000	0.7245
102.6660	50.0000	0.7240
103.0675	50.0000	0.7268
103.4671	50.0000	0.7241
103.8675	50.0000	0.7242
104.2685	50.0000	0.7236
104.6694	50.0000	0.7238
105.0708	50.0000	0.7249
105.4710	50.0000	0.7251
105.8713	50.0000	0.7264
106.2715	50.0000	0.7244
106.6715	50.0000	0.7260
107.0724	50.0000	0.7253
107.4730	50.0000	0.7240
107.8765	50.0000	0.7233
108.2772	50.0000	0.7262
108.6792	50.0000	0.7233
109.0806	50.0000	0.7212
109.4815	50.0000	0.7228
109.8829	50.0000	0.7224
110.2824	50.0000	0.7277
110.6829	50.0000	0.7277
111.0829	50.0000	0.7234
111.4829	50.0000	0.7193
111.8829	50.0000	0.7265
112.2829	50.0000	0.7231
112.6829	50.0000	0.7258
113.0830	50.0000	0.7257
113.4851	50.0000	0.7229
113.8859	50.0000	0.9511
114.2853	50.0000	0.9047
114.6875	50.0000	1.6422
115.0883	50.0000	1.8249
115.4885	50.0000	2.1589
115.8907	50.0000	2.1732
116.2914	50.0000	2.1679
116.6911	50.0000	2.1641
117.0930	50.0000	2.1627
117.4929	50.0000	2.1650
117.8930	50.0000	2.1659
118.2928	50.0000	2.1627
118.6930	50.0000	2.1637
119.0930	50.0000	2.1597
119.4930	50.0000	2.1592
119.8928	50.0000	2.1624
120.2949	50.0000	2.1627
120.6950	50.0000	2.1668
121.0954	50.0000	2.1638
121.4973	50.0000	2.1578
121.8981	50.0000	2.1645
122.2992	50.0000	2.1642
122.7018	50.0000	2.1652
123.1038	50.0000	2.1701
123.5055	50.0000	2.1603
123.9052	50.0000	2.1615
124.3053	50.0000	2.1643
124.7055	50.0000	2.1664
125.1055	50.0000	2.1658
125.5071	50.0000	2.1661
125.9087	50.0000	2.1644
126.3107	50.0000	2.1689
126.7107	50.0000	2.1663
127.1106	50.0000	2.1548
127.5107	50.0000	2.1638
127.9131	50.0000	2.1646
128.3130	50.0000	2.1623
128.7131	50.0000	2.1719
129.1127	50.0000	2.1630
129.5130	50.0000	2.1664
129.9131	50.0000	2.1634
130.3125	50.0000	2.1638
130.7125	50.0000	2.1620
131.1128	50.0000	2.1551
131.5130	50.0000	2.1703
131.9131	50.0000	2.1688
132.3129	50.0000	2.1626
132.7128	50.0000	2.1646
133.1155	50.0000	2.1576
133.5155	50.0000	2.1701
133.9154	50.0000	2.1581
134.3156	50.0000	2.1632
134.7174	50.0000	2.1612
135.1197	50.0000	2.1671
135.5208	50.0000	2.1574
135.9206	50.0000	2.1658
136.3207	50.0000	2.1609
136.7221	50.0000	2.1627
137.1231	50.0000	2.1618
137.5231	50.0000	2.1690
137.9262	50.0000	2.1634
138.3256	50.0000	2.1639
138.7263	50.0000	2.1599
139.1280	50.0000	2.1689
139.5293	50.0000	2.1707
139.9303	50.0000	2.1650
140.3304	50.0000	2.1569
140.7332	50.0000	2.1601
141.1347	50.0000	2.1603
141.5353	50.0000	2.1656
141.9370	50.0000	2.1619
142.3380	50.0000	2.1604
142.7388	50.0000	2.1575
143.1387	50.0000	2.1659
143.5413	50.0000	2.1626
143.9416	50.0000	2.1655
144.3432	50.0000	2.1698
144.7429	50.0000	2.1589
145.1437	50.0000	2.1670
145.5436	50.0000	2.1655
145.9433	50.0000	2.1590
146.3457	50.0000	2.1679
146.7476	50.0000	2.1638
147.1483	50.0000	2.1639
147.5504	50.0000	2.1566
147.9522	50.0000	2.1632
148.3518	50.0000	2.1620
148.7532	50.0000	2.1614
149.1533	50.0000	2.1646
149.5529	50.0000	2.1690
149.9524	50.0000	2.1645
150.3532	50.0000	2.1691
150.7525	50.0000	2.1593
151.1533	50.0000	2.1683
151.5533	50.0000	2.1654
151.9550	50.0000	2.1603
152.3559	50.0000	2.1642
152.7580	50.0000	2.1656
153.1594	50.0000	2.1651
153.5603	50.0000	2.1674
153.9610	50.0000	2.9914
154.3609	50.0000	3.3239
154.7612	50.0000	3.3949
155.1612	50.0000	3.6356
155.5632	50.0000	3.6326
155.9634	50.0000	3.6274
156.3634	50.0000	3.6298
156.7657	50.0000	3.6326
157.1671	50.0000	3.6330
157.5682	50.0000	3.6258
157.9682	50.0000	3.6378
158.3685	50.0000	3.6324
158.7693	50.0000	3.6253
159.1699	50.0000	3.6292
159.5714	50.0000	3.6299
159.9708	50.0000	3.6223
160.3709	50.0000	3.6296
160.7709	50.0000	3.6390
161.1714	50.0000	3.6257
161.5734	50.0000	3.6312
161.9731	50.0000	3.6274
162.3725	50.0000	3.6302
162.7734	50.0000	3.6327
163.1735	50.0000	3.6277
163.5750	50.0000	3.6378
163.9765	50.0000	3.6256
164.3770	50.0000	3.6341
164.7768	50.0000	3.6313
165.1785	50.0000	3.6357
165.5785	50.0000	3.6269
165.9791	50.0000	3.6317
166.3788	50.0000	3.6227
166.7789	50.0000	3.6269
167.1794	50.0000	3.6288
167.5801	50.0000	3.6256
167.9800	50.0000	3.6346
168.3795	50.0000	3.6345
168.7814	50.0000	3.6330
169.1810	50.0000	3.6359
169.5813	50.0000	3.6326
169.9816	50.0000	3.6261
170.3833	50.0000	3.6331
170.7829	50.0000	3.6299
171.1832	50.0000	3.6314
171.5830	50.0000	3.6292
171.9826	50.0000	3.6301
172.3831	50.0000	3.6301
172.7835	50.0000	3.6336
173.1835	50.0000	3.6317
173.5850	50.0000	3.6290
173.9858	50.0000	3.6303
174.3859	50.0000	3.6417
174.7857	50.0000	3.6605
175.1859	50.0000	4.3944
175.5889	50.0000	4.3763
175.9905	50.0000	2.6274
176.3924	50.0000	1.6997
176.7922	50.0000	2.5142
177.1927	50.0000	2.2478
177.5931	50.0000	2.1741
177.9934	50.0000	2.1899
178.3940	50.0000	2.1829
178.7953	50.0000	2.1989
179.1964	50.0000	2.1914
179.5958	50.0000	2.1909
179.9960	50.0000	2.2004
180.3957	50.0000	2.1969
180.7959	50.0000	2.1930
181.1994	50.0000	2.1977
181.6017	50.0000	2.1896
182.0020	50.0000	2.1905
182.4035	50.0000	2.1928
182.8056	50.0000	2.1970
183.2051	50.0000	2.1947
183.6050	50.0000	2.1936
184.0058	50.0000	2.1997
184.4087	50.0000	2.1929
184.8093	50.0000	2.1926
185.2116	50.0000	2.1897
185.6135	50.0000	2.1938
186.0136	50.0000	2.1973
186.4136	50.0000	2.1919
186.8133	50.0000	2.1954
187.2160	50.0000	2.1919
187.6159	50.0000	2.1944
188.0167	50.0000	2.1906
188.4181	50.0000	2.1967
188.8204	50.0000	2.1901
189.2201	50.0000	2.1924
189.6206	50.0000	2.1927
190.0209	50.0000	2.1926
190.4213	50.0000	2.1936
190.8213	50.0000	2.1922
191.2213	50.0000	2.1923
191.6213	50.0000	2.1998
192.0217	50.0000	2.1924
192.4211	50.0000	2.1949
192.8213	50.0000	2.1934
193.2211	50.0000	2.1930
193.6212	50.0000	2.1904
194.0216	50.0000	2.1922
194.4222	50.0000	2.1938
194.8225	50.0000	2.1937
195.2224	50.0000	2.1950
195.6236	50.0000	2.1944
196.0235	50.0000	2.1950
196.4237	50.0000	2.1922
196.8237	50.0000	2.1919
197.2237	50.0000	2.1917
197.6235	50.0000	2.1945
198.0236	50.0000	2.1920
198.4236	50.0000	2.1958
198.8260	50.0000	2.1938
199.2261	50.0000	2.1940
199.6271	50.0000	2.1961
200.0281	50.0000	2.1922
200.4284	50.0000	2.4238
200.8283	50.0000	3.7287
201.2290	50.0000	4.2207
201.6292	50.0000	4.1310
202.0290	50.0000	4.1024
202.4300	50.0000	4.0706
202.8304	50.0000	4.0825
203.2309	50.0000	4.0783
203.6313	50.0000	4.0773
204.0311	50.0000	4.0771
204.4328	50.0000	4.0836
204.8350	50.0000	4.0813
205.2359	50.0000	4.0835
205.6361	50.0000	4.0790
206.0367	50.0000	4.0807
206.4384	50.0000	4.0782
206.8384	50.0000	4.0806
207.2390	50.0000	4.0805
207.6400	50.0000	4.0792
208.0418	50.0000	4.0804
208.4418	50.0000	4.0827
208.8438	50.0000	4.0805
209.2462	50.0000	4.0820
209.6462	50.0000	4.0820
210.0464	50.0000	4.0832
210.4461	50.0000	4.0775
210.8461	50.0000	4.0831
211.2462	50.0000	4.0840
211.6462	50.0000	4.0817
212.0461	50.0000	4.0791
212.4463	50.0000	4.0805
212.8460	50.0000	4.0809
213.2462	50.0000	4.0781
213.6460	50.0000	4.0814
214.0462	50.0000	4.0784
214.4463	50.0000	4.0799
214.8462	50.0000	4.0804
215.2481	50.0000	4.0791
215.6491	50.0000	4.0821
216.0490	50.0000	4.0816
216.4506	50.0000	4.0810
216.8507	50.0000	4.0817
217.2523	50.0000	4.0808
217.6536	50.0000	4.0810
218.0539	50.0000	4.0815
218.4563	50.0000	4.0797
218.8572	50.0000	4.0785
219.2571	50.0000	4.0777
219.6584	50.0000	4.0789
220.0595	50.0000	4.0794
220.4608	50.0000	4.0782
220.8631	50.0000	4.0788
221.2639	50.0000	4.0837
221.6636	50.0000	4.7029
222.0639	50.0000	4.8554
222.4636	50.0000	4.2589
222.8662	50.0000	3.5692
223.2661	50.0000	3.9196
223.6682	50.0000	3.4601
224.0699	50.0000	3.4641
224.4713	50.0000	5.0475
224.8745	50.0000	5.4772
225.2764	50.0000	3.2956
225.6793	50.0000	5.8450
226.0791	50.0000	5.5624
226.4802	50.0000	5.1513
226.8818	50.0000	5.6270
227.2815	50.0000	4.8668
227.6816	50.0000	2.3849
228.0816	50.0000	2.5524
228.4816	50.0000	2.6304
228.8838	50.0000	2.6131
229.2840	50.0000	2.6089
229.6838	50.0000	2.6107
230.0840	50.0000	2.6122
230.4856	50.0000	2.6087
230.8863	50.0000	2.6116
231.2871	50.0000	2.7029
231.6890	50.0000	2.5793
232.0900	50.0000	2.5976
232.4895	50.0000	2.6123
232.8914	50.0000	2.6104
233.2921	50.0000	2.6109
233.6931	50.0000	2.6097
234.0955	50.0000	2.6119
234.4956	50.0000	2.6075
234.8975	50.0000	2.6139
235.2988	50.0000	2.6109
235.6985	50.0000	2.6155
236.0985	50.0000	2.6086
236.4983	50.0000	2.6133
236.8998	50.0000	2.6116
237.3013	50.0000	2.6126
237.7021	50.0000	2.6167
238.1040	50.0000	2.6127
238.5041	50.0000	2.6138
238.9035	50.0000	2.6079
239.3041	50.0000	2.6096
239.7040	50.0000	2.6091
240.1033	50.0000	2.6118
240.5040	50.0000	2.6117
240.9040	50.0000	2.6159
241.3039	50.0000	2.6080
241.7035	50.0000	2.6132
242.1063	50.0000	2.6116
242.5065	50.0000	2.6115
242.9100	50.0000	2.6081
243.3118	50.0000	2.6122
243.7132	50.0000	2.6125
244.1141	50.0000	2.6120
244.5141	50.0000	2.6115
244.9135	50.0000	2.6097
245.3141	50.0000	2.6116
245.7140	50.0000	2.6144
246.1141	50.0000	2.6120
246.5132	50.0000	2.6094
246.9162	50.0000	2.6118
247.3191	50.0000	2.6135
247.7197	50.0000	2.6105
248.1207	50.0000	2.6111
248.5212	50.0000	2.6093
248.9234	50.0000	2.6130
249.3241	50.0000	2.6105
249.7248	50.0000	2.6100
250.1265	50.0000	2.6110
250.5268	50.0000	2.6108
250.9266	50.0000	2.6116
251.3281	50.0000	2.6124
251.7288	50.0000	2.6121
252.1299	50.0000	2.6125
252.5306	50.0000	2.6110
252.9313	50.0000	2.6099
253.3337	50.0000	2.6137
253.7339	50.0000	2.6086
254.1339	50.0000	2.6089
254.5341	50.0000	2.6099
254.9353	50.0000	2.6113
255.3366	50.0000	2.6104
255.7366	50.0000	2.6126
256.1375	50.0000	2.6130
256.5390	50.0000	2.6133
256.9412	50.0000	2.6115
257.3422	50.0000	2.6108
257.7446	50.0000	2.6083
258.1458	50.0000	2.6111
258.5489	50.0000	2.6104
258.9502	50.0000	2.6100
259.3511	50.0000	2.6109
259.7518	50.0000	2.6111
260.1524	50.0000	2.6116
260.5542	50.0000	2.6100
260.9564	50.0000	2.6113
261.3574	50.0000	2.6108
261.7581	50.0000	2.6094
262.1591	50.0000	2.6146
262.5595	50.0000	2.6115
262.9618	50.0000	2.6100
263.3631	50.0000	2.6268
263.7643	50.0000	2.6030
264.1658	50.0000	3.1523
264.5658	50.0000	2.5954
264.9668	50.0000	2.6216
265.3684	50.0000	3.1677
265.7691	50.0000	3.8880
266.1693	50.0000	4.6006
266.5720	50.0000	3.9890
266.9717	50.0000	4.0202
267.3729	50.0000	4.0469
267.7738	50.0000	4.0451
268.1745	50.0000	4.0541
268.5762	50.0000	4.0508
268.9764	50.0000	4.0509
269.3767	50.0000	4.0511
269.7789	50.0000	4.0528
270.1789	50.0000	4.0531
270.5796	50.0000	4.0475
270.9804	50.0000	4.0501
271.3820	50.0000	4.0510
271.7833	50.0000	4.0480
272.1843	50.0000	4.0502
272.5861	50.0000	4.0525
272.9864	50.0000	4.0495
273.3858	50.0000	4.0513
273.7870	50.0000	4.0500
274.1868	50.0000	4.0486
274.5868	50.0000	4.0511
274.9877	50.0000	4.0475
275.3900	50.0000	4.0506
275.7917	50.0000	4.0496
276.1920	50.0000	4.0506
276.5942	50.0000	4.0506
276.9944	50.0000	4.0494
277.3942	50.0000	4.0500
277.7960	50.0000	4.0498
278.1968	50.0000	4.0497
278.5967	50.0000	4.0511
278.9977	50.0000	4.0498
279.3994	50.0000	4.0529
279.8005	50.0000	4.0482
280.2020	50.0000	4.0505
280.6018	50.0000	4.0503
281.0021	50.0000	4.0504
281.4036	50.0000	4.0497
281.8044	50.0000	4.0498
282.2045	50.0000	4.0507
282.6070	50.0000	4.0530
283.0069	50.0000	4.0494
283.4067	50.0000	4.0499
283.8095	50.0000	4.0489
284.2097	50.0000	4.0497
284.6121	50.0000	4.0483
285.0120	50.0000	4.0476
285.4123	50.0000	4.0476
285.8126	50.0000	4.0520
286.2145	50.0000	4.0485
286.6145	50.0000	4.0510
287.0165	50.0000	4.0501
287.4169	50.0000	4.0489
287.8178	50.0000	4.0472
288.2201	50.0000	4.0520
288.6208	50.0000	4.0483
289.0206	50.0000	4.0507
289.4224	50.0000	4.0493
289.8223	50.0000	4.0488
290.2238	50.0000	4.0514
290.6245	50.0000	4.0545
291.0245	50.0000	4.0501
291.4245	50.0000	4.0482
291.8245	50.0000	4.0501
292.2244	50.0000	4.0504
292.6241	50.0000	4.0523
293.0245	50.0000	4.0468
293.4244	50.0000	4.0471
293.8245	50.0000	4.0496
294.2245	50.0000	4.0480
294.6241	50.0000	4.0507
295.0249	50.0000	4.0459
295.4269	50.0000	4.0507
295.8268	50.0000	4.0481
296.2269	50.0000	4.0499
296.6266	50.0000	4.0532
297.0267	50.0000	4.0495
297.4270	50.0000	4.0489
297.8268	50.0000	4.0492
298.2292	50.0000	4.0506
298.6299	50.0000	4.0488
299.0307	50.0000	4.0490
299.4316	50.0000	4.0511
299.8322	50.0000	4.0508
300.2325	50.0000	4.0511
300.6322	50.0000	4.0493
301.0322	50.0000	4.0498
301.4322	50.0000	4.0514
301.8319	50.0000	4.0493
302.2320	50.0000	4.0514
302.6317	50.0000	4.0495
303.0346	50.0000	4.0502
303.4338	50.0000	4.0473
303.8356	50.0000	4.0510
304.2348	50.0000	4.0467
304.6358	50.0000	4.0497
305.0369	50.0000	4.0453
305.4378	50.0000	4.0481
305.8377	50.0000	4.0526
306.2396	50.0000	4.0526
306.6406	50.0000	4.0476
307.0413	50.0000	4.0502
307.4421	50.0000	4.0514
307.8435	50.0000	4.0458
308.2468	50.0000	4.0498
308.6470	50.0000	4.0490
309.0469	50.0000	4.0494
309.4470	50.0000	4.0510
309.8488	50.0000	4.0474
310.2498	50.0000	4.0476
310.6504	50.0000	4.0508
311.0508	50.0000	4.0503
311.4526	50.0000	4.0478
311.8533	50.0000	4.0508
312.2543	50.0000	4.0480
312.6547	50.0000	4.0513
313.0547	50.0000	4.0497
313.4546	50.0000	4.0498
313.8547	50.0000	4.0503
314.2547	50.0000	4.0501
314.6547	50.0000	4.0478
315.0547	50.0000	4.0496
315.4567	50.0000	4.0486
315.8571	50.0000	4.0517
316.2597	50.0000	4.0474
316.6613	50.0000	4.0491
317.0622	50.0000	4.0491
317.4623	50.0000	4.0488
317.8624	50.0000	4.0492
318.2620	50.0000	4.0497
318.6628	50.0000	4.0470
319.0637	50.0000	4.0482
319.4632	50.0000	4.0476
319.8633	50.0000	4.0495
320.2646	50.0000	4.0514
320.6648	50.0000	4.0493
321.0672	50.0000	4.0492
321.4683	50.0000	4.0478
321.8710	50.0000	4.0506
322.2736	50.0000	4.0489
322.6732	50.0000	4.0487
323.0728	50.0000	4.0499
323.4732	50.0000	4.0488
323.8729	50.0000	4.0475
324.2730	50.0000	4.0501
324.6748	50.0000	4.0483
325.0772	50.0000	4.0503
325.4772	50.0000	4.0466
325.8770	50.0000	4.0470
326.2771	50.0000	4.0497
326.6783	50.0000	4.0495
327.0805	50.0000	4.0502
327.4811	50.0000	4.0485
327.8824	50.0000	4.0477
328.2826	50.0000	4.0476
328.6824	50.0000	4.0434
329.0833	50.0000	4.0504
329.4843	50.0000	4.0491
329.8848	50.0000	4.0479
330.2848	50.0000	4.0499
330.6867	50.0000	4.0473
331.0873	50.0000	4.0475
331.4887	50.0000	4.0489
331.8907	50.0000	4.0515
332.2926	50.0000	4.0470
332.6933	50.0000	4.0466
333.0951	50.0000	4.0467
333.4951	50.0000	4.0473
333.8971	50.0000	4.0478
334.2981	50.0000	4.0483
334.7000	50.0000	4.0468
335.1016	50.0000	4.0478
335.5015	50.0000	4.0465
335.9029	50.0000	4.0486
336.3028	50.0000	4.0481
336.7023	50.0000	4.0485
337.1022	50.0000	4.0461
337.5048	50.0000	4.0484
337.9048	50.0000	4.0483
338.3044	50.0000	4.0496
338.7049	50.0000	4.0476
339.1049	50.0000	4.0466
339.5042	50.0000	4.0491
339.9049	50.0000	4.0451
340.3049	50.0000	4.0463
340.7049	50.0000	4.0479
341.1049	50.0000	4.0491
341.5043	50.0000	4.0476
341.9049	50.0000	4.0436
342.3049	50.0000	4.0469
342.7046	50.0000	4.0491
343.1050	50.0000	4.0488
343.5044	50.0000	4.0485
343.9050	50.0000	4.0502
344.3050	50.0000	4.8626
344.7050	50.0000	4.7400
345.1042	50.0000	5.2142
345.5070	50.0000	3.1921
345.9065	50.0000	2.6006
346.3076	50.0000	2.3709
346.7073	50.0000	2.6404
347.1080	50.0000	2.6097
347.5074	50.0000	2.6208
347.9094	50.0000	2.6167
348.3092	50.0000	2.6160
348.7108	50.0000	2.6167
349.1126	50.0000	2.6180
349.5134	50.0000	2.6193
349.9133	50.0000	2.6180
350.3156	50.0000	2.6157
350.7173	50.0000	2.6165
351.1212	50.0000	2.6148
351.5219	50.0000	2.6164
351.9217	50.0000	2.6176
352.3222	50.0000	2.6154
352.7228	50.0000	2.6162
353.1238	50.0000	2.6171
353.5239	50.0000	2.6204
353.9239	50.0000	2.6180
354.3249	50.0000	2.6180
354.7250	50.0000	2.6236
355.1249	50.0000	2.6184
355.5252	50.0000	2.6305
355.9272	50.0000	4.0094
356.3280	50.0000	4.3018
356.7286	50.0000	4.4383
357.1288	50.0000	4.5081
357.5300	50.0000	4.5029
357.9294	50.0000	4.5048
358.3297	50.0000	4.5004
358.7307	50.0000	4.5055
359.1328	50.0000	4.5056
359.5348	50.0000	4.5036
359.9362	50.0000	4.5032
360.3379	50.0000	4.5034
360.7375	50.0000	4.5026
361.1400	50.0000	4.5079
361.5411	50.0000	4.5034
361.9424	50.0000	4.5009
362.3427	50.0000	4.5062
362.7433	50.0000	4.5043
363.1446	50.0000	4.5083
363.5451	50.0000	4.5023
363.9447	50.0000	4.5052
364.3443	50.0000	4.5045
364.7450	50.0000	4.5043
365.1451	50.0000	4.5038
365.5451	50.0000	4.5060
365.9461	50.0000	4.5039
366.3467	50.0000	4.5021
366.7474	50.0000	4.5025
367.1495	50.0000	4.5071
367.5505	50.0000	4.5034
367.9522	50.0000	4.5088
368.3524	50.0000	4.5056
368.7532	50.0000	4.5036
369.1542	50.0000	4.5023
369.5552	50.0000	4.5061
369.9551	50.0000	4.5026
370.3551	50.0000	4.5051
370.7552	50.0000	4.5022
371.1552	50.0000	4.5049
371.5575	50.0000	4.5074
371.9581	50.0000	4.5043
372.3576	50.0000	4.5040
372.7576	50.0000	4.5037
373.1586	50.0000	4.5076
373.5595	50.0000	4.5087
373.9598	50.0000	4.5052
374.3598	50.0000	4.5015
374.7598	50.0000	4.5057
375.1625	50.0000	4.5065
375.5645	50.0000	4.5045
375.9647	50.0000	4.5037
376.3652	50.0000	4.5028
376.7653	50.0000	4.5018
377.1652	50.0000	4.5045
377.5676	50.0000	4.5023
377.9712	50.0000	4.5061
378.3716	50.0000	4.5045
378.7717	50.0000	4.5040
379.1724	50.0000	4.5086
379.5736	50.0000	4.5023
379.9737	50.0000	4.5032
380.3743	50.0000	4.5043
380.7750	50.0000	4.5015
381.1750	50.0000	4.5021
381.5749	50.0000	4.5053
381.9744	50.0000	4.5081
382.3753	50.0000	4.5092
382.7752	50.0000	4.5057
383.1755	50.0000	4.5050
383.5793	50.0000	4.5062
383.9784	50.0000	4.5020
384.3789	50.0000	4.5070
384.7785	50.0000	4.5053
385.1807	50.0000	4.5032
385.5812	50.0000	4.5034
385.9812	50.0000	4.5042
386.3814	50.0000	4.5042
386.7808	50.0000	4.5045
387.1824	50.0000	4.5066
387.5830	50.0000	4.5043
387.9829	50.0000	4.5078
388.3831	50.0000	4.5080
388.7834	50.0000	4.5005
389.1854	50.0000	4.5076
389.5855	50.0000	4.5061
389.9854	50.0000	4.5070
390.3871	50.0000	4.5043
390.7876	50.0000	4.1041
391.1878	50.0000	2.6106
391.5885	50.0000	2.6212
391.9895	50.0000	2.6212
392.3925	50.0000	2.4887
392.7930	50.0000	2.6228
393.1943	50.0000	2.6185
393.5954	50.0000	2.6159
393.9949	50.0000	2.6151
394.3954	50.0000	2.6181
394.7954	50.0000	2.6170
395.1954	50.0000	2.6148
395.5972	50.0000	2.6167
395.9978	50.0000	2.6155
396.3979	50.0000	2.6166
396.7977	50.0000	2.6168
397.1978	50.0000	2.6140
397.5979	50.0000	2.6164
397.9987	50.0000	2.6165
398.4004	50.0000	2.6218
398.8012	50.0000	2.6174
399.2018	50.0000	2.6141
399.6026	50.0000	2.6128
400.0031	50.0000	2.6164
400.4031	50.0000	2.6161
400.8025	50.0000	2.6162
401.2047	50.0000	2.6165
401.6055	50.0000	2.6172
402.0054	50.0000	2.6166
402.4055	50.0000	2.6178
402.8053	50.0000	2.6179
403.2055	50.0000	2.5802
403.6055	50.0000	2.6171
404.0054	50.0000	2.6234
404.4055	50.0000	2.5374
404.8078	50.0000	2.5170
405.2079	50.0000	2.5727
405.6078	50.0000	2.6549
406.0079	50.0000	2.6322
406.4086	50.0000	2.3649
406.8108	50.0000	2.6832
407.2114	50.0000	2.7098
407.6123	50.0000	2.6295
408.0128	50.0000	2.6103
408.4132	50.0000	2.6090
408.8133	50.0000	2.6244
409.2137	50.0000	2.7634
409.6155	50.0000	2.5846
410.0155	50.0000	2.5708
410.4155	50.0000	3.0633
410.8148	50.0000	2.5428
411.2157	50.0000	2.6517
411.6169	50.0000	2.5032
412.0179	50.0000	2.5866
412.4207	50.0000	2.5950
412.8207	50.0000	2.5472
413.2221	50.0000	2.4532
413.6225	50.0000	2.6497
414.0256	50.0000	2.6166
414.4256	50.0000	2.9129
414.8256	50.0000	2.7103
415.2251	50.0000	2.6260
415.6255	50.0000	1.9169
416.0256	50.0000	1.6176
416.4273	50.0000	1.9647
416.8279	50.0000	2.3833
417.2280	50.0000	2.2514
417.6280	50.0000	1.9340
418.0280	50.0000	2.2244
418.4281	50.0000	1.5398
418.8279	50.0000	2.1375
419.2278	50.0000	1.9194
419.6280	50.0000	2.0304
420.0281	50.0000	2.0449
420.4277	50.0000	1.7429
420.8287	50.0000	1.5872
421.2307	50.0000	0.7855
421.6317	50.0000	0.1486
422.0321	50.0000	0.9284
422.4330	50.0000	1.0983
422.8335	50.0000	0.6777
423.2333	50.0000	1.0579
423.6352	50.0000	1.0550
424.0379	50.0000	1.2106
424.4391	50.0000	0.9513
424.8399	50.0000	1.0870
425.2409	50.0000	0.7448
425.6421	50.0000	1.0930
426.0418	50.0000	1.1533
426.4436	50.0000	0.5454
426.8437	50.0000	1.1733
427.2456	50.0000	-0.3426
427.6457	50.0000	-0.3484
428.0475	50.0000	-0.3532
428.4480	50.0000	-0.3530
428.8481	50.0000	-0.3538
429.2481	50.0000	-0.3533
429.6488	50.0000	-0.3547
430.0496	50.0000	-0.3555
430.4496	50.0000	-0.3540
430.8507	50.0000	-0.3531
431.2509	50.0000	-0.3518
431.6529	50.0000	-0.3533
432.0533	50.0000	-0.3539
432.4537	50.0000	-0.3556
432.8533	50.0000	-0.3541
433.2538	50.0000	-0.3511
433.6542	50.0000	-0.3536
434.0577	50.0000	-0.3522
434.4575	50.0000	-0.3529
434.8580	50.0000	-0.3478
435.2581	50.0000	-0.3542
435.6582	50.0000	-0.3533
436.0598	50.0000	-0.3520
436.4620	50.0000	-0.3530
436.8632	50.0000	-0.3512
437.2634	50.0000	-0.3526
437.6639	50.0000	-0.3527
438.0646	50.0000	-0.3549
438.4639	50.0000	-0.3544
438.8648	50.0000	-0.3508
439.2658	50.0000	-0.3537
439.6651	50.0000	-0.3539
440.0658	50.0000	-0.3497
440.4682	50.0000	-0.3510
440.8682	50.0000	-0.3523
441.2681	50.0000	-0.3528
441.6683	50.0000	-0.3557
442.0682	50.0000	-0.3539
442.4681	50.0000	-0.3532
442.8683	50.0000	-0.3529
443.2681	50.0000	-0.3576
443.6700	50.0000	-0.3513
444.0715	50.0000	-0.3536
444.4719	50.0000	-0.3544
444.8735	50.0000	-0.3541
445.2737	50.0000	-0.3533
445.6734	50.0000	-0.3547
446.0730	50.0000	-0.3524
446.4731	50.0000	-0.6969
446.8741	50.0000	-1.4008
447.2747	50.0000	-1.5440
447.6758	50.0000	-1.3093
448.0764	50.0000	-1.7864
448.4779	50.0000	-2.1633
448.8782	50.0000	-1.4401
449.2783	50.0000	-1.9882
449.6781	50.0000	-0.8641
450.0792	50.0000	-1.3654
450.4816	50.0000	-0.4671
450.8810	50.0000	-0.6486
451.2810	50.0000	0.5462
451.6823	50.0000	0.6970
452.0825	50.0000	1.0494
452.4840	50.0000	1.2836
452.8859	50.0000	1.1260
453.2859	50.0000	1.4830
453.6873	50.0000	0.4743
454.0876	50.0000	0.9153
454.4877	50.0000	0.8400
454.8874	50.0000	1.0619
455.2879	50.0000	0.8916
455.6880	50.0000	1.2686
456.0881	50.0000	1.0465
456.4891	50.0000	1.0383
456.8895	50.0000	1.0213
457.2916	50.0000	0.5584
457.6929	50.0000	0.5439
458.0937	50.0000	0.7729
458.4936	50.0000	1.0033
458.8930	50.0000	1.3830
459.2942	50.0000	1.8407
459.6948	50.0000	1.5502
460.0961	50.0000	1.1223
460.4984	50.0000	1.8197
460.9010	50.0000	1.5408
461.3022	50.0000	1.5367
461.7026	50.0000	1.5361
462.1036	50.0000	1.5362
462.5039	50.0000	1.5386
462.9038	50.0000	1.5377
463.3061	50.0000	1.5390
463.7084	50.0000	1.5407
464.1083	50.0000	1.5405
464.5083	50.0000	1.5386
464.9084	50.0000	1.5394
465.3084	50.0000	1.5393
465.7084	50.0000	1.5352
466.1098	50.0000	1.5383
466.5093	50.0000	1.5406
466.9101	50.0000	1.5391
467.3106	50.0000	1.5354
467.7121	50.0000	1.5378
468.1132	50.0000	1.5380
468.5135	50.0000	1.5372
468.9140	50.0000	1.5419
469.3137	50.0000	1.5358
469.7135	50.0000	1.5407
470.1141	50.0000	1.5381
470.5153	50.0000	1.5386
470.9202	50.0000	1.5385
471.3202	50.0000	1.5369
471.7202	50.0000	1.5377
472.1212	50.0000	1.5350
472.5227	50.0000	1.5331
472.9232	50.0000	1.5408
473.3235	50.0000	1.5282
473.7240	50.0000	1.5364
474.1241	50.0000	1.5362
474.5251	50.0000	1.5352
474.9255	50.0000	1.5386
475.3261	50.0000	1.5377
475.7254	50.0000	1.5361
476.1261	50.0000	1.5378
476.5261	50.0000	1.5375
476.9257	50.0000	1.5379
477.3260	50.0000	1.5367
477.7261	50.0000	1.5376
478.1260	50.0000	1.5335
478.5261	50.0000	1.5392
478.9261	50.0000	1.5353
479.3271	50.0000	1.5404
479.7271	50.0000	1.5382
480.1276	50.0000	1.5367
480.5302	50.0000	1.5380
480.9295	50.0000	1.5376
481.3312	50.0000	1.5383
481.7317	50.0000	1.5370
482.1333	50.0000	1.5355
482.5342	50.0000	1.5380
482.9362	50.0000	1.5372
483.3374	50.0000	1.5366
483.7382	50.0000	1.5373
484.1385	50.0000	1.5371
484.5408	50.0000	1.5320
484.9414	50.0000	1.5401
485.3429	50.0000	1.5353
485.7437	50.0000	1.5388
486.1437	50.0000	1.5382
486.5435	50.0000	1.5384
486.9439	50.0000	1.5341
487.3440	50.0000	1.5377
487.7443	50.0000	1.5359
488.1462	50.0000	1.5314
488.5482	50.0000	1.5332
488.9494	50.0000	1.5415
489.3504	50.0000	1.5386
489.7513	50.0000	1.5382
490.1524	50.0000	1.5333
490.5534	50.0000	1.5331
490.9547	50.0000	1.5394
491.3559	50.0000	1.5375
491.7561	50.0000	1.5371
492.1562	50.0000	1.5348
492.5562	50.0000	1.5384
492.9561	50.0000	1.5343
493.3562	50.0000	1.5384
493.7563	50.0000	1.5362
494.1558	50.0000	1.5350
494.5557	50.0000	1.5369
494.8558	50.0000	1.5413