File: Tinius-Olsen_Levitation_force/Measurements/20231204_1541YBCOs1_sl9_4.txt
4/12/2023 3:41:07 pm
Time(s)	Displacement(mm)	Force(N)
0.0000	-315.4950	0.1475
0.2200	-314.4310	1.6096
0.4200	-313.0980	1.8862
0.6200	-311.7640	1.9442
0.8194	-310.4310	1.9280
1.0200	-309.0980	1.8753
1.2210	-307.7650	1.8057
1.4207	-306.4320	1.7329
1.6208	-305.0620	1.6565
1.8215	-303.7290	1.5896
2.0216	-302.3970	1.5274
2.2216	-301.0640	1.4729
2.4217	-299.7300	1.4241
2.6212	-298.3970	1.3774
2.8238	-297.0640	1.3425
3.0234	-295.7320	1.3118
3.2242	-294.3980	1.2808
3.4258	-293.0650	1.2615
3.6252	-291.6980	1.2417
3.8277	-290.3650	1.2238
4.0272	-289.0300	1.2112
4.2275	-287.6970	1.1960
4.4292	-286.3640	1.1873
4.6291	-285.0310	1.1735
4.8292	-283.6980	1.1651
5.0313	-282.3300	1.1602
5.2326	-280.9980	1.1573
5.4349	-279.6650	1.1516
5.6366	-278.2970	1.1465
5.8381	-276.9640	1.1442
6.0400	-275.6310	1.1481
6.2416	-274.2620	1.1492
6.4419	-272.9630	1.1497
6.6414	-271.5960	1.1612
6.8419	-270.2630	1.1710
7.0418	-268.9640	1.1902
7.2418	-267.5940	1.2070
7.4425	-266.2610	1.2250
7.6431	-265.6390	1.2311
7.8430	-265.6390	1.2309
8.0433	-265.6390	1.2332
8.2436	-265.6390	1.2313
8.4435	-265.6400	1.2328
8.6439	-265.6400	1.2299
8.8438	-265.6400	1.2335
9.0442	-265.6400	1.2292
9.2447	-265.6400	1.2297
9.4442	-265.6400	1.2300
9.6443	-265.6400	1.2295
9.8448	-265.6400	1.2307
10.0450	-265.6400	1.2279
10.2446	-265.6400	1.2309
10.4453	-265.6400	1.2270
10.6461	-265.6400	1.2272
10.8464	-265.6400	1.2298
11.0474	-265.6400	1.2285
11.2483	-265.6400	1.2303
11.4492	-265.6400	1.2311
11.6493	-265.6400	1.2280
11.8499	-265.6400	1.2296
12.0502	-265.6400	1.2278
12.2509	-265.6400	1.2291
12.4519	-265.6400	1.2270
12.6514	-265.6400	1.2268
12.8529	-265.6400	1.2230
13.0539	-265.6400	1.2250
13.2538	-265.6400	1.2258
13.4552	-265.6400	1.2276
13.6559	-265.6400	1.2273
13.8560	-265.6400	1.2254
14.0557	-265.6400	1.2258
14.2560	-265.6400	1.2259
14.4555	-265.6400	1.2272
14.6553	-265.6400	1.2314
14.8573	-265.6400	1.2286
15.0573	-265.6400	1.2279
15.2582	-265.6400	1.2289
15.4576	-265.6400	1.2277
15.6574	-265.6400	1.2289
15.8577	-265.6400	1.2300
16.0577	-265.6400	1.2296
16.2580	-265.7680	1.2143
16.4778	-266.8640	1.2126
16.6794	-268.1970	1.1907
16.8793	-269.5330	1.1703
17.0809	-270.8660	1.1537
17.2817	-272.2010	1.1401
17.4832	-273.5340	1.1378
17.6826	-274.8690	1.1349
17.8832	-276.2370	1.1330
18.0829	-277.5700	1.1289
18.2832	-278.9020	1.1311
18.4842	-280.2360	1.1300
18.6848	-281.5690	1.1291
18.8845	-282.9020	1.1304
19.0849	-284.2350	1.1294
19.2862	-285.5680	1.1237
19.4862	-286.9030	1.1238
19.6854	-288.2360	1.1245
19.8857	-289.5690	1.1227
20.0868	-290.9020	1.1191
20.2868	-292.2350	1.1158
20.4882	-293.6020	1.1021
20.6880	-294.9350	1.0932
20.8874	-296.2340	1.0687
21.0882	-297.5690	1.0471
21.2890	-298.9370	1.0173
21.4895	-300.2700	0.9709
21.6921	-301.6030	0.9194
21.8913	-302.9360	0.8728
22.0917	-304.2710	0.8025
22.2913	-305.6070	0.7257
22.4917	-306.9400	0.6351
22.6914	-308.2730	0.5275
22.8915	-309.6060	0.3982
23.0916	-310.9390	0.2481
23.2916	-312.2720	0.0649
23.4918	-312.9550	-0.1543
23.6917	-314.9400	-0.4190
23.8915	-315.6410	-1.0709
24.0923	-315.6410	-0.9055
24.2922	-315.6400	-0.8512
24.4917	-315.6400	-0.8193
24.6914	-315.6400	-0.7979
24.8936	-315.6400	-0.7807
25.0938	-315.6400	-0.7663
25.2935	-315.6400	-0.7542
25.4953	-315.6400	-0.7430
25.6948	-315.6400	-0.7363
25.8957	-315.6400	-0.7320
26.0957	-315.6400	-0.7247
26.2974	-315.6400	-0.7186
26.5002	-315.6400	-0.7101
26.6997	-315.6400	-0.7081
26.9014	-315.6400	-0.7020
27.1012	-315.6400	-0.7006
27.3015	-315.6400	-0.6954
27.5017	-315.6400	-0.6915
27.7024	-315.6400	-0.6885
27.9051	-315.6400	-0.6831
28.1062	-315.6400	-0.6827
28.3057	-315.6400	-0.6773
28.5054	-315.6400	-0.6773
28.7058	-315.6400	-0.6736
28.9068	-315.6400	-0.6726
29.1087	-315.6400	-0.6699
29.3081	-315.6400	-0.6694
29.5089	-315.6400	-0.6654
29.7084	-315.6400	-0.6626
29.9084	-315.6400	-0.6578
30.1103	-315.6400	-0.6576
30.3124	-315.6400	-0.6549
30.5141	-315.6400	-0.6503
30.7137	-315.6400	-0.6534
30.9151	-315.6400	-0.6519
31.1148	-315.6400	-0.6479
31.3157	-315.6400	-0.6483
31.5156	-315.6400	-0.6458
31.7163	-315.6400	-0.6464
31.9162	-315.6400	-0.6439
32.1155	-315.6400	-0.6403
32.3162	-315.6400	-0.6404
32.5155	-315.6400	-0.6406
32.7173	-315.6400	-0.6398
32.9173	-315.6400	-0.6353
33.1165	-315.6400	-0.6353
33.3185	-315.6400	-0.6332
33.5202	-315.6400	-0.6302
33.7198	-315.6400	-0.6301
33.9200	-315.6400	-0.6283
34.1212	-315.6400	-0.6277
34.3205	-315.6400	-0.6243
34.5216	-315.6400	-0.6252
34.7216	-315.6400	-0.6222
34.9216	-315.6400	-0.6229
35.1225	-315.6400	-0.6213
35.3236	-315.6400	-0.6211
35.5242	-315.6400	-0.6200
35.7237	-315.6400	-0.6197
35.9253	-315.6400	-0.6159
36.1263	-315.6400	-0.6170
36.3277	-315.6400	-0.6156
36.5291	-315.6400	-0.6122
36.7298	-315.6400	-0.6131
36.9315	-315.6400	-0.6132
37.1328	-315.6400	-0.6112
37.3333	-315.6400	-0.6100
37.5332	-315.6400	-0.6114
37.7343	-315.6400	-0.6096
37.9341	-315.6400	-0.6095
38.1336	-315.6400	-0.6079
38.3355	-315.6400	-0.6053
38.5371	-315.6400	-0.6063
38.7372	-315.6400	-0.6046
38.9378	-315.6400	-0.6087
39.1379	-315.6400	-0.6058
39.3387	-315.6400	-0.6024
39.5402	-315.6400	-0.6017
39.7398	-315.6400	-0.6011
39.9395	-315.6400	-0.6020
40.1400	-315.6400	-0.5995
40.3412	-315.6400	-0.5993
40.5413	-315.6400	-0.5977
40.7422	-315.6400	-0.6005
40.9416	-315.6400	-0.5963
41.1419	-315.6400	-0.5953
41.3423	-315.6400	-0.5962
41.5423	-315.6400	-0.5962
41.7415	-315.6400	-0.5968
41.9422	-315.6400	-0.5948
42.1420	-315.6400	-0.5954
42.3416	-315.6400	-0.5941
42.5418	-315.6400	-0.5934
42.7429	-315.6400	-0.5922
42.9435	-315.6400	-0.5929
43.1443	-315.6400	-0.5892
43.3450	-315.6400	-0.5915
43.5447	-315.6400	-0.5902
43.7458	-315.6400	-0.5908
43.9463	-315.6400	-0.5877
44.1478	-315.6400	-0.5919
44.3469	-315.6400	-0.5877
44.5478	-315.6400	-0.5875
44.7475	-315.6400	-0.5846
44.9479	-315.6400	-0.5865
45.1476	-315.6400	-0.5871
45.3489	-315.6400	-0.5817
45.5498	-315.6400	-0.5826
45.7498	-315.6400	-0.5836
45.9497	-315.6400	-0.5811
46.1499	-315.6400	-0.5827
46.3502	-315.6400	-0.5821
46.5503	-315.6400	-0.5829
46.7502	-315.6400	-0.5802
46.9497	-315.6400	-0.5789
47.1504	-315.6400	-0.5786
47.3508	-315.6400	-0.5816
47.5524	-315.6400	-0.5808
47.7519	-315.6400	-0.5794
47.9523	-315.6400	-0.5789
48.1520	-315.6400	-0.5783
48.3532	-315.6400	-0.5800
48.5549	-315.6400	-0.5770
48.7547	-315.6400	-0.5767
48.9557	-315.6400	-0.5739
49.1576	-315.6400	-0.5762
49.3584	-315.6400	-0.5773
49.5579	-315.6400	-0.5749
49.7595	-315.6400	-0.5746
49.9598	-315.6400	-0.5758
50.1602	-315.6400	-0.5746
50.3603	-315.6400	-0.5729
50.5614	-315.6400	-0.5733
50.7611	-315.6400	-0.5745
50.9624	-315.6400	-0.5731
51.1643	-315.6400	-0.5737
51.3655	-315.6400	-0.5710
51.5665	-315.6400	-0.5711
51.7660	-315.6400	-0.5734
51.9675	-315.6400	-0.5703
52.1679	-315.6400	-0.5709
52.3704	-315.6400	-0.5713
52.5707	-315.6400	-0.5714
52.7726	-315.6400	-0.5712
52.9716	-315.6400	-0.5695
53.1722	-315.6400	-0.5669
53.3738	-315.6400	-0.5679
53.5747	-315.6400	-0.5685
53.7748	-315.6400	-0.5690
53.9751	-315.6400	-0.5655
54.1754	-315.6400	-0.5689
54.3750	-315.6400	-0.5677
54.5751	-315.6400	-0.5677
54.7748	-315.6400	-0.5690
54.9756	-315.6400	-0.5659
55.1760	-315.6400	-0.5636
55.3765	-315.6400	-0.5622
55.5766	-315.6400	-0.5631
55.7765	-315.6400	-0.5618
55.9756	-315.6400	-0.5630
56.1765	-315.6400	-0.5606
56.3774	-315.6400	-0.5608
56.5786	-315.6400	-0.5583
56.7779	-315.6400	-0.5594
56.9792	-315.6400	-0.5565
57.1805	-315.6400	-0.5597
57.3806	-315.6400	-0.5593
57.5798	-315.6400	-0.5601
57.7797	-315.6400	-0.5580
57.9810	-315.6400	-0.5602
58.1825	-315.6400	-0.5575
58.3820	-315.6400	-0.5580
58.5825	-315.6400	-0.5572
58.7827	-315.6400	-0.5559
58.9844	-315.6400	-0.5577
59.1849	-315.6400	-0.5548
59.3866	-315.6400	-0.5576
59.5874	-315.6400	-0.5559
59.7879	-315.6400	-0.5547
59.9891	-315.6400	-0.5547
60.1897	-315.6400	-0.5562
60.3903	-315.6400	-0.5555
60.5898	-315.6400	-0.5541
60.7901	-315.6400	-0.5521
60.9902	-315.6400	-0.5542
61.1904	-315.6400	-0.5543
61.3904	-315.6400	-0.5535
61.5904	-315.6400	-0.5542
61.7913	-315.6400	-0.5526
61.9915	-315.6400	-0.5524
62.1926	-315.6400	-0.5513
62.3936	-315.6400	-0.5508
62.5935	-315.6400	-0.5529
62.7932	-315.6400	-0.5512
62.9941	-315.6400	-0.5493
63.1946	-315.6400	-0.5514
63.3955	-315.6400	-0.5503
63.5956	-315.6400	-0.5502
63.7956	-315.6400	-0.5504
63.9957	-315.6400	-0.5498
64.1958	-315.6400	-0.5522
64.3973	-315.6400	-0.5511
64.5978	-315.6400	-0.5513
64.7994	-315.6400	-0.5496
64.9998	-315.6400	-0.5472
65.2016	-315.6400	-0.5485
65.4010	-315.6400	-0.5471
65.6026	-315.6400	-0.5494
65.8019	-315.6400	-0.5492
66.0037	-315.6400	-0.5452
66.2034	-315.6400	-0.5429
66.4042	-315.6400	-0.5442
66.6038	-315.6400	-0.5467
66.8055	-315.6400	-0.5474
67.0064	-315.6400	-0.5438
67.2059	-315.6400	-0.5448
67.4062	-315.6400	-0.5444
67.6063	-315.6400	-0.5417
67.8076	-315.6400	-0.5447
68.0081	-315.6400	-0.5450
68.2081	-315.6400	-0.5443
68.4086	-315.6400	-0.5451
68.6078	-315.6400	-0.5418
68.8082	-315.6400	-0.5433
69.0080	-315.6400	-0.5437
69.2081	-315.6400	-0.5426
69.4081	-315.6400	-0.5407
69.6097	-315.6400	-0.5398
69.8095	-315.6400	-0.5412
70.0102	-315.6400	-0.5418
70.2105	-315.6400	-0.5420
70.4106	-315.6400	-0.5417
70.6115	-315.6400	-0.5424
70.8116	-315.6400	-0.5388
71.0116	-315.6400	-0.5413
71.2128	-315.6400	-0.5424
71.4120	-315.6400	-0.5404
71.6126	-315.6400	-0.5398
71.8124	-315.6400	-0.5389
72.0141	-315.6400	-0.5392
72.2138	-315.6400	-0.5397
72.4146	-315.6400	-0.5419
72.6150	-315.6400	-0.5396
72.8166	-315.6400	-0.5396
73.0160	-315.6400	-0.5389
73.2186	-315.6400	-0.5395
73.4181	-315.6400	-0.5390
73.6207	-315.6400	-0.5391
73.8201	-315.6400	-0.5393
74.0217	-315.6400	-0.5376
74.2228	-315.6400	-0.5381
74.4237	-315.6400	-0.5395
74.6231	-315.6400	-0.5391
74.8240	-315.6400	-0.5371
75.0247	-315.6400	-0.5409
75.2248	-315.6400	-0.5393
75.4256	-315.6400	-0.5376
75.6250	-315.6400	-0.5361
75.8258	-315.6400	-0.5382
76.0263	-315.6400	-0.5367
76.2268	-315.6400	-0.5356
76.4264	-315.6400	-0.5364
76.6260	-315.6400	-0.5344
76.8274	-315.6400	-0.5361
77.0270	-315.6400	-0.5371
77.2277	-315.6400	-0.5341
77.4277	-315.6400	-0.5350
77.6279	-315.6400	-0.5332
77.8297	-315.6400	-0.5325
78.0296	-315.6400	-0.5331
78.2292	-315.6400	-0.5327
78.4304	-315.6400	-0.5351
78.6304	-315.6400	-0.5293
78.8299	-315.6400	-0.5322
79.0306	-315.6400	-0.5315
79.2309	-315.6400	-0.5333
79.4322	-315.6400	-0.5296
79.6319	-315.6400	-0.5298
79.8338	-315.6400	-0.5295
80.0348	-315.6400	-0.5281
80.2345	-315.6400	-0.5294
80.4349	-315.6400	-0.5304
80.6349	-315.6400	-0.5266
80.8360	-315.6400	-0.5301
81.0386	-315.6400	-0.5268
81.2406	-315.6400	-0.5271
81.4406	-315.6400	-0.5288
81.6403	-315.6400	-0.5249
81.8417	-315.6400	-0.5275
82.0424	-315.6400	-0.5284
82.2426	-315.6400	-0.5266
82.4436	-315.6400	-0.5270
82.6448	-315.6400	-0.5286
82.8440	-315.6400	-0.5265
83.0444	-315.6400	-0.5287
83.2459	-315.6400	-0.5281
83.4459	-315.6400	-0.5253
83.6451	-315.6400	-0.5255
83.8460	-315.6400	-0.5265
84.0468	-315.6400	-0.5231
84.2464	-315.6400	-0.5260
84.4459	-315.6400	-0.5254
84.6476	-315.6400	-0.5271
84.8478	-315.6400	-0.5264
85.0478	-315.6400	-0.5252
85.2472	-315.6400	-0.5248
85.4478	-315.6400	-0.5235
85.6487	-315.6400	-0.5241
85.8487	-315.6400	-0.5234
86.0482	-315.6400	-0.5250
86.2480	-315.6400	-0.5239
86.4499	-315.6400	-0.5232
86.6506	-315.6400	-0.5230
86.8519	-315.6400	-0.5241
87.0512	-315.6400	-0.5224
87.2516	-315.6400	-0.5221
87.4514	-315.6400	-0.5226
87.6521	-315.6400	-0.5227
87.8535	-315.6400	-0.5224
88.0530	-315.6400	-0.5206
88.2538	-315.6400	-0.5223
88.4540	-315.6400	-0.5215
88.6557	-315.6400	-0.5192
88.8563	-315.6400	-0.5199
89.0563	-315.6400	-0.5204
89.2563	-315.6400	-0.5201
89.4565	-315.6400	-0.5217
89.6573	-315.6400	-0.5199
89.8583	-315.6400	-0.5191
90.0583	-315.6400	-0.5185
90.2581	-315.6400	-0.5187
90.4583	-315.6400	-0.5190
90.6583	-315.6400	-0.5210
90.8598	-315.6400	-0.5202
91.0597	-315.6400	-0.5182
91.2599	-315.6400	-0.5214
91.4593	-315.6400	-0.5181
91.6604	-315.6400	-0.5199
91.8606	-315.6400	-0.5181
92.0603	-315.6400	-0.5183
92.2608	-315.6400	-0.5198
92.4614	-315.6400	-0.5193
92.6625	-315.6400	-0.5181
92.8623	-315.6400	-0.5159
93.0650	-315.6400	-0.5164
93.2654	-315.6400	-0.5158
93.4657	-315.6400	-0.5163
93.6652	-315.6400	-0.5166
93.8668	-315.6400	-0.5165
94.0671	-315.6400	-0.5162
94.2681	-315.6400	-0.5166
94.4698	-315.6400	-0.5156
94.6717	-315.6400	-0.5163
94.8720	-315.6400	-0.5168
95.0729	-315.6400	-0.5149
95.2722	-315.6400	-0.5135
95.4720	-315.6400	-0.5184
95.6741	-315.6400	-0.5166
95.8754	-315.6400	-0.5152
96.0778	-315.6400	-0.5159
96.2784	-315.6400	-0.5162
96.4798	-315.6400	-0.5156
96.6794	-315.6400	-0.5128
96.8799	-315.6400	-0.5136
97.0807	-315.6400	-0.5145
97.2803	-315.6400	-0.5129
97.4804	-315.6400	-0.5153
97.6807	-315.6400	-0.5135
97.8807	-315.6400	-0.5127
98.0808	-315.6400	-0.5128
98.2805	-315.6400	-0.5124
98.4806	-315.6400	-0.5113
98.6811	-315.6400	-0.5127
98.8811	-315.6400	-0.5118
99.0813	-315.6400	-0.5115
99.2820	-315.6400	-0.5134
99.4811	-315.6400	-0.5102
99.6817	-315.6400	-0.5097
99.8840	-315.6400	-0.5120
100.0859	-315.6400	-0.5123
100.2843	-315.6400	-0.5092
100.4855	-315.6400	-0.5114
100.6859	-315.6400	-0.5137
100.8859	-315.6400	-0.5123
101.0881	-315.6400	-0.5107
101.2890	-315.6400	-0.5135
101.4881	-315.6400	-0.5111
101.6890	-315.6400	-0.5094
101.8888	-315.6400	-0.5088
102.0899	-315.6400	-0.5100
102.2911	-315.6400	-0.5100
102.4918	-315.6400	-0.5095
102.6925	-315.6400	-0.5103
102.8936	-315.6400	-0.5103
103.0940	-315.6400	-0.5076
103.2948	-315.6400	-0.5052
103.4947	-315.6400	-0.5067
103.6959	-315.6400	-0.5097
103.8960	-315.6400	-0.5078
104.0969	-315.6400	-0.5062
104.2967	-315.6400	-0.5107
104.4970	-315.6400	-0.5120
104.6967	-315.6400	-0.5101
104.8967	-315.6400	-0.5099
105.0962	-315.6400	-0.5076
105.2975	-315.6400	-0.5072
105.4985	-315.6400	-0.5104
105.6983	-315.6400	-0.5088
105.8989	-315.6400	-0.5076
106.0985	-315.6400	-0.5073
106.3001	-315.6400	-0.5072
106.5006	-315.6400	-0.5091
106.7022	-315.6400	-0.5099
106.9028	-315.6400	-0.5079
107.1030	-315.6400	-0.5066
107.3043	-315.6400	-0.5050
107.5042	-315.6400	-0.5071
107.7053	-315.6400	-0.5050
107.9054	-315.6400	-0.5092
108.1060	-315.6400	-0.5070
108.3056	-315.6400	-0.5080
108.5059	-315.6400	-0.5089
108.7070	-315.6400	-0.5055
108.9076	-315.6400	-0.5072
109.1085	-315.6400	-0.5054
109.3081	-315.6400	-0.5055
109.5090	-315.6400	-0.5047
109.7082	-315.6400	-0.5073
109.9095	-315.6400	-0.5080
110.1092	-315.6400	-0.5066
110.3095	-315.6400	-0.5062
110.5102	-315.6400	-0.5088
110.7108	-315.6400	-0.5080
110.9115	-315.6400	-0.5062
111.1119	-315.6400	-0.5059
111.3118	-315.6400	-0.5036
111.5115	-315.6400	-0.5043
111.7115	-315.6400	-0.5044
111.9127	-315.6400	-0.5020
112.1129	-315.6400	-0.5036
112.3126	-315.6400	-0.5035
112.5130	-315.6400	-0.5039
112.7135	-315.6400	-0.5041
112.9147	-315.6400	-0.5034
113.1145	-315.6400	-0.5072
113.3147	-315.6400	-0.5055
113.5149	-315.6400	-0.5050
113.7159	-315.6400	-0.5052
113.9165	-315.6400	-0.5052
114.1180	-315.6400	-0.5046
114.3191	-315.6400	-0.5028
114.5185	-315.6400	-0.5041
114.7205	-315.6400	-0.5048
114.9207	-315.6400	-0.5060
115.1220	-315.6400	-0.5041
115.3225	-315.6400	-0.5032
115.5236	-315.6400	-0.5024
115.7243	-315.6400	-0.5018
115.9257	-315.6400	-0.5018
116.1269	-315.6400	-0.5035
116.3265	-315.6400	-0.5044
116.5269	-315.6400	-0.5025
116.7267	-315.6400	-0.5032
116.9280	-315.6400	-0.5028
117.1272	-315.6400	-0.5017
117.3292	-315.6400	-0.5027
117.5296	-315.6400	-0.5011
117.7310	-315.6400	-0.5011
117.9308	-315.6400	-0.5015
118.1310	-315.6400	-0.5008
118.3306	-315.6400	-0.5021
118.5310	-315.6400	-0.5000
118.7308	-315.6400	-0.5012
118.9308	-315.6400	-0.4969
119.1309	-315.6400	-0.4994
119.3306	-315.6400	-0.4988
119.5307	-315.6400	-0.4998
119.7307	-315.6400	-0.4979
119.9322	-315.6400	-0.4992
120.1322	-315.6400	-0.4996
120.3314	-315.6400	-0.4971
120.5314	-315.6400	-0.5007
120.7313	-315.6400	-0.4997
120.9324	-315.6400	-0.4969
121.1328	-315.6400	-0.4983
121.3341	-315.6400	-0.4969
121.5341	-315.6400	-0.4980
121.7336	-315.6400	-0.4992
121.9350	-315.6400	-0.4958
122.1353	-315.6400	-0.4974
122.3369	-315.6400	-0.4943
122.5391	-315.6400	-0.4956
122.7401	-315.6400	-0.4974
122.9401	-315.6400	-0.4974
123.1411	-315.6400	-0.4957
123.3405	-315.6400	-0.4985
123.5439	-315.6400	-0.4969
123.7437	-315.6400	-0.4988
123.9460	-315.6400	-0.4968
124.1468	-315.6400	-0.4959
124.3463	-315.6400	-0.4973
124.5478	-315.6400	-0.4964
124.7478	-315.6400	-0.4961
124.9475	-315.6400	-0.4957
125.1487	-315.6400	-0.4972
125.3508	-315.6400	-0.4968
125.5503	-315.6400	-0.4950
125.7509	-315.6400	-0.4969
125.9503	-315.6400	-0.4953
126.1510	-315.6400	-0.4955
126.3521	-315.6400	-0.4916
126.5523	-315.6400	-0.4955
126.7541	-315.6400	-0.4954
126.9536	-315.6400	-0.4974
127.1535	-315.6400	-0.4969
127.3551	-315.6400	-0.4983
127.5555	-315.6400	-0.4945
127.7559	-315.6400	-0.4961
127.9556	-315.6400	-0.4958
128.1567	-315.6400	-0.4937
128.3569	-315.6400	-0.4928
128.5583	-315.6400	-0.4931
128.7585	-315.6400	-0.4923
128.9589	-315.6400	-0.4919
129.1587	-315.6400	-0.4948
129.3601	-315.6400	-0.4925
129.5605	-315.6400	-0.4942
129.7605	-315.6400	-0.4950
129.9605	-315.6400	-0.4957
130.1609	-315.6400	-0.4953
130.3625	-315.6400	-0.4923
130.5629	-315.6400	-0.4943
130.7647	-315.6400	-0.4941
130.9663	-315.6400	-0.4933
131.1672	-315.6400	-0.4944
131.3674	-315.6400	-0.4913
131.5691	-315.6400	-0.4907
131.7687	-315.6400	-0.4931
131.9692	-315.6400	-0.4923
132.1698	-315.6400	-0.4919
132.3713	-315.6400	-0.4881
132.5710	-315.6400	-0.4944
132.7731	-315.6400	-0.4922
132.9725	-315.6400	-0.4910
133.1725	-315.6400	-0.4887
133.3750	-315.6400	-0.4899
133.5756	-315.6400	-0.4864
133.7761	-315.6400	-0.4898
133.9757	-315.6400	-0.4879
134.1771	-315.6400	-0.4886
134.3768	-315.6400	-0.4904
134.5775	-315.6400	-0.4888
134.7783	-315.6400	-0.4901
134.9787	-315.6400	-0.4883
135.1802	-315.6400	-0.4879
135.3810	-315.6400	-0.4891
135.5809	-315.6400	-0.4881
135.7811	-315.6400	-0.4928
135.9810	-315.6400	-0.4884
136.1812	-315.6400	-0.4892
136.3809	-315.6400	-0.4917
136.5808	-315.6400	-0.4895
136.7810	-315.6400	-0.4903
136.9809	-315.6400	-0.4907
137.1824	-315.6400	-0.4899
137.3842	-315.6400	-0.4891
137.5836	-315.6400	-0.4877
137.7860	-315.6400	-0.4899
137.9863	-315.6400	-0.4887
138.1864	-315.6400	-0.4882
138.3858	-315.6400	-0.4867
138.5864	-315.6400	-0.4863
138.7887	-315.6400	-0.4883
138.9887	-315.6400	-0.4893
139.1888	-315.6400	-0.4894
139.3884	-315.6400	-0.4882
139.5889	-315.6400	-0.4897
139.7905	-315.6400	-0.4874
139.9916	-315.6400	-0.4886
140.1924	-315.6400	-0.4869
140.3934	-315.6400	-0.4888
140.5926	-315.6400	-0.4883
140.7929	-315.6400	-0.4877
140.9952	-315.6400	-0.4891
141.1953	-315.6400	-0.4892
141.3970	-315.6400	-0.4904
141.5970	-315.6400	-0.4873
141.7970	-315.6400	-0.4904
141.9972	-315.6400	-0.4873
142.1967	-315.6400	-0.4880
142.3992	-315.6400	-0.4869
142.5988	-315.6400	-0.4882
142.7987	-315.6400	-0.4875
143.0012	-315.6400	-0.4881
143.2008	-315.6400	-0.4887
143.4012	-315.6400	-0.4895
143.6018	-315.6400	-0.4873
143.8016	-315.6400	-0.4875
144.0041	-315.6400	-0.4874
144.2040	-315.6400	-0.4881
144.4043	-315.6400	-0.4903
144.6046	-315.6400	-0.4864
144.8066	-315.6400	-0.4871
145.0074	-315.6400	-0.4870
145.2074	-315.6400	-0.4873
145.4066	-315.6400	-0.4860
145.6072	-315.6400	-0.4865
145.8070	-315.6400	-0.4868
146.0083	-315.6400	-0.4863
146.2094	-315.6400	-0.4859
146.4094	-315.6400	-0.4888
146.6113	-315.6400	-0.4855
146.8124	-315.6400	-0.4854
147.0122	-315.6400	-0.4831
147.2125	-315.6400	-0.4851
147.4123	-315.6400	-0.4849
147.6130	-315.6400	-0.4871
147.8132	-315.6400	-0.4881
148.0132	-315.6400	-0.4872
148.2141	-315.6400	-0.4879
148.4151	-315.6400	-0.4885
148.6147	-315.6400	-0.4895
148.8162	-315.6400	-0.4867
149.0170	-315.6400	-0.4842
149.2170	-315.6400	-0.4863
149.4170	-315.6400	-0.4854
149.6183	-315.6400	-0.4845
149.8180	-315.6400	-0.4845
150.0187	-315.6400	-0.4848
150.2203	-315.6400	-0.4869
150.4202	-315.6400	-0.4836
150.6209	-315.6400	-0.4860
150.8213	-315.6400	-0.4846
151.0222	-315.6400	-0.4842
151.2220	-315.6400	-0.4830
151.4222	-315.6400	-0.4844
151.6227	-315.6400	-0.4839
151.8232	-315.6400	-0.4849
152.0239	-315.6400	-0.4839
152.2241	-315.6400	-0.4865
152.4244	-315.6400	-0.4845
152.6252	-315.6400	-0.4840
152.8251	-315.6400	-0.4822
153.0250	-315.6400	-0.4823
153.2265	-315.6400	-0.4823
153.4268	-315.6400	-0.4800
153.6288	-315.6400	-0.4803
153.8297	-315.6400	-0.4826
154.0305	-315.6400	-0.4807
154.2302	-315.6400	-0.4815
154.4306	-315.6400	-0.4808
154.6319	-315.6400	-0.4828
154.8316	-315.6400	-0.4817
155.0328	-315.6400	-0.4824
155.2340	-315.6400	-0.4837
155.4353	-315.6400	-0.4818
155.6364	-315.6400	-0.4835
155.8360	-315.6400	-0.4824
156.0364	-315.6400	-0.4832
156.2359	-315.6400	-0.4811
156.4356	-315.6400	-0.4807
156.6384	-315.6400	-0.4798
156.8389	-315.6400	-0.4821
157.0394	-315.6400	-0.4804
157.2387	-315.6400	-0.4807
157.4403	-315.6400	-0.4815
157.6399	-315.6400	-0.4804
157.8397	-315.6400	-0.4805
158.0414	-315.6400	-0.4800
158.2409	-315.6400	-0.4781
158.4421	-315.6400	-0.4785
158.6416	-315.6400	-0.4808
158.8432	-315.6400	-0.4787
159.0435	-315.6400	-0.4805
159.2445	-315.6400	-0.4797
159.4454	-315.6400	-0.4813
159.6457	-315.6400	-0.4816
159.8461	-315.6400	-0.4803
160.0474	-315.6400	-0.4785
160.2472	-315.6400	-0.4791
160.4475	-315.6400	-0.4803
160.6477	-315.6400	-0.4793
160.8480	-315.6400	-0.4801
161.0479	-315.6400	-0.4821
161.2484	-315.6400	-0.4812
161.4514	-315.6400	-0.4786
161.6523	-315.6400	-0.4794
161.8527	-315.6400	-0.4760
162.0534	-315.6400	-0.4778
162.2537	-315.6400	-0.4783
162.4556	-315.6400	-0.4773
162.6550	-315.6400	-0.4782
162.8574	-315.6400	-0.4790
163.0584	-315.6400	-0.4816
163.2592	-315.6400	-0.4777
163.4593	-315.6400	-0.4772
163.6589	-315.6400	-0.4773
163.8602	-315.6400	-0.4770
164.0598	-315.6400	-0.4772
164.2601	-315.6400	-0.4765
164.4609	-315.6400	-0.4772
164.6634	-315.6400	-0.4793
164.8629	-315.6400	-0.4784
165.0632	-315.6400	-0.4776
165.2630	-315.6400	-0.4770
165.4627	-315.6400	-0.4780
165.6631	-315.6400	-0.4781
165.8639	-315.6400	-0.4792
166.0654	-315.6400	-0.4773
166.2659	-315.6400	-0.4756
166.4677	-315.6400	-0.4742
166.6677	-315.6400	-0.4752
166.8679	-315.6400	-0.4760
167.0678	-315.6400	-0.4760
167.2697	-315.6400	-0.4752
167.4712	-315.6400	-0.4739
167.6714	-315.6400	-0.4765
167.8712	-315.6400	-0.4749
168.0710	-315.6400	-0.4784
168.2714	-315.6400	-0.4768
168.4720	-315.6400	-0.4758
168.6725	-315.6400	-0.4778
168.8723	-315.6400	-0.4748
169.0724	-315.6400	-0.4757
169.2728	-315.6400	-0.4752
169.4728	-315.6400	-0.4732
169.6742	-315.6400	-0.4759
169.8738	-315.6400	-0.4751
170.0753	-315.6400	-0.4749
170.2767	-315.6400	-0.4745
170.4766	-315.6400	-0.4738
170.6777	-315.6400	-0.4752
170.8783	-315.6400	-0.4726
171.0790	-315.6400	-0.4748
171.2804	-315.6400	-0.4754
171.4798	-315.6400	-0.4767
171.6816	-315.6400	-0.4739
171.8809	-315.6400	-0.4753
172.0817	-315.6400	-0.4761
172.2815	-315.6400	-0.4754
172.4825	-315.6400	-0.4760
172.6835	-315.6400	-0.4755
172.8843	-315.6400	-0.4740
173.0844	-315.6400	-0.4732
173.2839	-315.6400	-0.4737
173.4844	-315.6400	-0.4726
173.6846	-315.6400	-0.4744
173.8841	-315.6400	-0.4732
174.0842	-315.6400	-0.4770
174.2857	-315.6400	-0.4750
174.4859	-315.6400	-0.4732
174.6868	-315.6400	-0.4746
174.8873	-315.6400	-0.4753
175.0880	-315.6400	-0.4753
175.2880	-315.6400	-0.4750
175.4902	-315.6400	-0.4750
175.6902	-315.6400	-0.4746
175.8917	-315.6400	-0.4738
176.0934	-315.6400	-0.4750
176.2947	-315.6400	-0.4756
176.4951	-315.6400	-0.4739
176.6949	-315.6400	-0.4746
176.8967	-315.6400	-0.4749
177.0977	-315.6400	-0.4739
177.2980	-315.6400	-0.4730
177.4980	-315.6400	-0.4748
177.6995	-315.6400	-0.4722
177.9005	-315.6400	-0.4749
178.1036	-315.6400	-0.4712
178.3043	-315.6400	-0.4732
178.5039	-315.6400	-0.4737
178.7041	-315.6400	-0.4719
178.9043	-315.6400	-0.4717
179.1044	-315.6400	-0.4708
179.3050	-315.6400	-0.4714
179.5062	-315.6400	-0.4712
179.7066	-315.6400	-0.4724
179.9063	-315.6400	-0.4715
180.1077	-315.6400	-0.4711
180.3084	-315.6400	-0.4742
180.5079	-315.6400	-0.4713
180.7096	-315.6400	-0.4703
180.9108	-315.6400	-0.4741
181.1098	-315.6400	-0.4702
181.3118	-315.6400	-0.4721
181.5110	-315.6400	-0.4715
181.7120	-315.6400	-0.4737
181.9133	-315.6400	-0.4738
182.1132	-315.6400	-0.4707
182.3131	-315.6400	-0.4726
182.5146	-315.6400	-0.4729
182.7141	-315.6400	-0.4710
182.9165	-315.6400	-0.4741
183.1161	-315.6400	-0.4744
183.3176	-315.6400	-0.4709
183.5181	-315.6400	-0.4720
183.7186	-315.6400	-0.4710
183.9181	-315.6400	-0.4719
184.1194	-315.6400	-0.4683
184.3199	-315.6400	-0.4713
184.5205	-315.6400	-0.4706
184.7212	-315.6400	-0.4706
184.9214	-315.6400	-0.4715
185.1226	-315.6400	-0.4712
185.3235	-315.6400	-0.4717
185.5230	-315.6400	-0.4694
185.7240	-315.6400	-0.4690
185.9254	-315.6400	-0.4687
186.1261	-315.6400	-0.4679
186.3261	-315.6400	-0.4657
186.5272	-315.6400	-0.4680
186.7284	-315.6400	-0.4691
186.9298	-315.6400	-0.4690
187.1292	-315.6400	-0.4692
187.3294	-315.6400	-0.4679
187.5315	-315.6400	-0.4684
187.7322	-315.6400	-0.4675
187.9334	-315.6400	-0.4691
188.1329	-315.6400	-0.4674
188.3330	-315.6400	-0.4666
188.5343	-315.6400	-0.4671
188.7342	-315.6400	-0.4686
188.9356	-315.6400	-0.4683
189.1374	-315.6400	-0.4689
189.3391	-315.6400	-0.4673
189.5391	-315.6400	-0.4685
189.7393	-315.6400	-0.4682
189.9394	-315.6400	-0.4675
190.1391	-315.6400	-0.4669
190.3398	-315.6400	-0.4662
190.5391	-315.6400	-0.4650
190.7394	-315.6400	-0.4650
190.9402	-315.6400	-0.4644
191.1427	-315.6400	-0.4657
191.3435	-315.6400	-0.4658
191.5433	-315.6400	-0.4666
191.7447	-315.6400	-0.4663
191.9450	-315.6400	-0.4672
192.1460	-315.6400	-0.4674
192.3461	-315.6400	-0.4679
192.5472	-315.6400	-0.4665
192.7471	-315.6400	-0.4681
192.9489	-315.6400	-0.4669
193.1490	-315.6400	-0.4673
193.3503	-315.6400	-0.4678
193.5528	-315.6400	-0.4680
193.7532	-315.6400	-0.4673
193.9544	-315.6400	-0.4684
194.1545	-315.6400	-0.4678
194.3552	-315.6400	-0.4656
194.5565	-315.6400	-0.4661
194.7577	-315.6400	-0.4676
194.9582	-315.6400	-0.4677
195.1596	-315.6400	-0.4687
195.3602	-315.6400	-0.4665
195.5610	-315.6400	-0.4644
195.7623	-315.6400	-0.4634
195.9625	-315.6400	-0.4658
196.1639	-315.6400	-0.4665
196.3659	-315.6400	-0.4640
196.5653	-315.6400	-0.4643
196.7677	-315.6400	-0.4672
196.9681	-315.6400	-0.4675
197.1692	-315.6400	-0.4644
197.3710	-315.6400	-0.4668
197.5710	-315.6400	-0.4649
197.7715	-315.6400	-0.4670
197.9740	-315.6400	-0.4644
198.1756	-315.6400	-0.4649
198.3777	-315.6400	-0.4649
198.5799	-315.6400	-0.4668
198.7794	-315.6400	-0.4641
198.9808	-315.6400	-0.4638
199.1814	-315.6400	-0.4625
199.3829	-315.6400	-0.4635
199.5820	-315.6400	-0.4655
199.7836	-315.6400	-0.4654
199.9854	-315.6400	-0.4655
200.1862	-315.6400	-0.4634
200.3885	-315.6400	-0.4650
200.5884	-315.6400	-0.4650
200.7881	-315.6400	-0.4650
200.9889	-315.6400	-0.4643
201.1893	-315.6400	-0.4652
201.3894	-315.6400	-0.4629
201.5898	-315.6400	-0.4654
201.7910	-315.6400	-0.4645
201.9911	-315.6400	-0.4630
202.1928	-315.6400	-0.4637
202.3937	-315.6400	-0.4630
202.5937	-315.6400	-0.4619
202.7931	-315.6400	-0.4632
202.9939	-315.6400	-0.4630
203.1960	-315.6400	-0.4655
203.3953	-315.6400	-0.4640
203.5968	-315.6400	-0.4637
203.7977	-315.6400	-0.4630
203.9985	-315.6400	-0.4643
204.1980	-315.6400	-0.4622
204.3998	-315.6400	-0.4660
204.5993	-315.6400	-0.4621
204.7998	-315.6400	-0.4649
204.9992	-315.6400	-0.4647
205.1994	-315.6400	-0.4662
205.3992	-315.6400	-0.4652
205.5994	-315.6400	-0.4644
205.7997	-315.6400	-0.4648
205.9994	-315.6400	-0.4653
206.1994	-315.6400	-0.4643
206.3995	-315.6400	-0.4658
206.5991	-315.6400	-0.4636
206.8000	-315.6400	-0.4632
206.9991	-315.6400	-0.4637
207.2008	-315.6400	-0.4617
207.4007	-315.6400	-0.4657
207.6018	-315.6400	-0.4640
207.8016	-315.6400	-0.4653
208.0028	-315.6400	-0.4615
208.2037	-315.6400	-0.4613
208.4058	-315.6400	-0.4605
208.6068	-315.6400	-0.4638
208.8072	-315.6400	-0.4621
209.0089	-315.6400	-0.4659
209.2094	-315.6400	-0.4640
209.4107	-315.6400	-0.4643
209.6110	-315.6400	-0.4634
209.8116	-315.6400	-0.4646
210.0117	-315.6400	-0.4632
210.2120	-315.6400	-0.4620
210.4131	-315.6400	-0.4631
210.6130	-315.6400	-0.4619
210.8146	-315.6400	-0.4631
211.0146	-315.6400	-0.4661
211.2163	-315.6400	-0.4633
211.4167	-315.6400	-0.4618
211.6170	-315.6400	-0.4618
211.8187	-315.6400	-0.4620
212.0182	-315.6400	-0.4638
212.2186	-315.6400	-0.4593
212.4189	-315.6400	-0.4616
212.6194	-315.6400	-0.4630
212.8195	-315.6400	-0.4624
213.0204	-315.6400	-0.4628
213.2220	-315.6400	-0.4638
213.4215	-315.6400	-0.4588
213.6229	-315.6400	-0.4603
213.8247	-315.6400	-0.4608
214.0255	-315.6400	-0.4620
214.2262	-315.6400	-0.4602
214.4278	-315.6400	-0.4596
214.6275	-315.6400	-0.4582
214.8291	-315.6400	-0.4590
215.0303	-315.6400	-0.4602
215.2309	-315.6400	-0.4631
215.4319	-315.6400	-0.4622
215.6317	-315.6400	-0.4620
215.8327	-315.6400	-0.4623
216.0333	-315.6400	-0.4618
216.2345	-315.6400	-0.4586
216.4363	-315.6400	-0.4628
216.6379	-315.6400	-0.4626
216.8383	-315.6400	-0.4623
217.0408	-315.6400	-0.4633
217.2402	-315.6400	-0.4617
217.4412	-315.6400	-0.4590
217.6422	-315.6400	-0.4612
217.8439	-315.6400	-0.4613
218.0449	-315.6400	-0.4614
218.2468	-315.6400	-0.4611
218.4449	-315.6400	-0.4595
218.6444	-315.6400	-0.4581
218.8471	-315.6400	-0.4566
219.0470	-315.6400	-0.4599
219.2479	-315.6400	-0.4591
219.4477	-315.6400	-0.4605
219.6489	-315.6400	-0.4596
219.8500	-315.6400	-0.4591
220.0494	-315.6400	-0.4601
220.2496	-315.6400	-0.4596
220.4516	-315.6400	-0.4607
220.6530	-315.6400	-0.4603
220.8540	-315.6400	-0.4597
221.0549	-315.6400	-0.4587
221.2549	-315.6400	-0.4583
221.4547	-315.6400	-0.4565
221.6562	-315.6400	-0.4592
221.8563	-315.6400	-0.4558
222.0567	-315.6400	-0.4577
222.2565	-315.6400	-0.4575
222.4567	-315.6400	-0.4586
222.6568	-315.6400	-0.4568
222.8563	-315.6400	-0.4593
223.0569	-315.6400	-0.4581
223.2568	-315.6400	-0.4606
223.4572	-315.6400	-0.4561
223.6572	-315.6400	-0.4575
223.8575	-315.6400	-0.4548
224.0573	-315.6400	-0.4553
224.2588	-315.6400	-0.4556
224.4592	-315.6400	-0.4590
224.6599	-315.6400	-0.4567
224.8601	-315.6400	-0.4560
225.0629	-315.6400	-0.4578
225.2624	-315.6400	-0.4591
225.4640	-315.6400	-0.4601
225.6646	-315.6400	-0.4574
225.8648	-315.6400	-0.4604
226.0662	-315.6400	-0.4575
226.2665	-315.6400	-0.4583
226.4675	-315.6400	-0.4550
226.6692	-315.6400	-0.4568
226.8706	-315.6400	-0.4562
227.0703	-315.6400	-0.4583
227.2720	-315.6400	-0.4561
227.4739	-315.6400	-0.4572
227.6734	-315.6400	-0.4559
227.8733	-315.6400	-0.4586
228.0752	-315.6400	-0.4568
228.2763	-315.6400	-0.4586
228.4770	-315.6400	-0.4592
228.6784	-315.6400	-0.4617
228.8800	-315.6400	-0.4580
229.0797	-315.6400	-0.4580
229.2810	-315.6400	-0.4550
229.4820	-315.6400	-0.4567
229.6816	-315.6400	-0.4551
229.8820	-315.6400	-0.4575
230.0814	-315.6400	-0.4571
230.2824	-315.6400	-0.4568
230.4830	-315.6400	-0.4554
230.6832	-315.6400	-0.4569
230.8835	-315.6400	-0.4557
231.0848	-315.6400	-0.4601
231.2848	-315.6400	-0.4572
231.4855	-315.6400	-0.4565
231.6864	-315.6400	-0.4550
231.8873	-315.6400	-0.4533
232.0865	-315.6400	-0.4543
232.2873	-315.4750	-0.4585
232.5086	-314.4060	-0.4551
232.7083	-313.0730	-0.4546
232.9092	-311.7400	-0.4500
233.1097	-310.4070	1.2848
233.3101	-309.0730	1.8258
233.5110	-307.7410	1.9378
233.7104	-306.4080	1.9493
233.9117	-305.0400	1.9076
234.1120	-303.7070	1.8385
234.3119	-302.3750	1.7637
234.5123	-301.0410	1.6903
234.7135	-299.7080	1.6191
234.9154	-298.3760	1.5576
235.1165	-297.0090	1.4950
235.3172	-295.6750	1.4420
235.5173	-294.3420	1.3974
235.7180	-293.0090	1.3585
235.9179	-291.6760	1.3268
236.1190	-290.3410	1.2943
236.3197	-289.0080	1.2700
236.5204	-287.6410	1.2484
236.7222	-286.3080	1.2317
236.9214	-284.9750	1.2173
237.1220	-283.6420	1.2062
237.3219	-282.3080	1.1888
237.5220	-280.9750	1.1763
237.7221	-279.6430	1.1733
237.9231	-278.3090	1.1645
238.1233	-276.9760	1.1627
238.3236	-275.6440	1.1569
238.5240	-274.3110	1.1545
238.7245	-272.9770	1.1517
238.9250	-271.6100	1.1503
239.1251	-270.3120	1.1545
239.3260	-268.9440	1.1647
239.5256	-267.6110	1.1799
239.7261	-266.2780	1.1980
239.9260	-265.6380	1.2152
240.1257	-265.6390	1.2371
240.3255	-265.6390	1.2539
240.5279	-265.6390	1.2530
240.7278	-265.6400	1.2705
240.9287	-265.6400	1.2663
241.1289	-265.6400	1.2680
241.3298	-265.6400	1.2656
241.5297	-265.6400	1.2676
241.7297	-265.6400	1.2694
241.9297	-265.6400	1.2672
242.1296	-265.6400	1.2666
242.3305	-265.6400	1.2638
242.5321	-265.6400	1.2672
242.7320	-265.6400	1.2668
242.9330	-265.6400	1.2684
243.1342	-265.6400	1.2669
243.3346	-265.6400	1.2655
243.5344	-265.6400	1.2674
243.7364	-265.6400	1.2650
243.9363	-265.6400	1.2690
244.1359	-265.6400	1.2643
244.3363	-265.6400	1.2672
244.5375	-265.6400	1.2635
244.7389	-265.6400	1.2637
244.9385	-265.6400	1.2663
245.1400	-265.6400	1.2646
245.3415	-265.6400	1.2649
245.5440	-265.6400	1.2626
245.7448	-265.6400	1.2652
245.9463	-265.6400	1.2647
246.1458	-265.6400	1.2643
246.3474	-265.6400	1.2658
246.5467	-265.6400	1.2634
246.7477	-265.6400	1.2650
246.9478	-265.6400	1.2616
247.1481	-265.6400	1.2648
247.3475	-265.6400	1.2633
247.5478	-265.6400	1.2631
247.7482	-265.6400	1.2669
247.9484	-265.6400	1.2612
248.1486	-265.6400	1.2622
248.3485	-265.6400	1.2621
248.5494	-265.6400	1.2649
248.7493	-265.6400	1.2630
248.9498	-265.6400	1.2642
249.1498	-265.6400	1.2655
249.3506	-265.6400	1.2640
249.5518	-265.6400	1.2676
249.6520	-265.6400	1.2637