File: Tinius-Olsen_Levitation_force/Measurements/20231204_1644GDBCOs2_sl6_2.txt
4/12/2023 4:44:02 pm
Time(s)	Displacement(mm)	Force(N)
0.0000	-266.9620	1.1273
0.2214	-268.0290	1.1425
0.4235	-269.3620	1.1430
0.6241	-270.7320	1.1421
0.8244	-272.0310	1.1399
1.0251	-273.3660	1.1468
1.2250	-274.6990	1.1467
1.4261	-276.0680	1.1586
1.6264	-277.4020	1.1596
1.8269	-278.7350	1.1678
2.0281	-280.0670	1.1693
2.2275	-281.4030	1.1849
2.4287	-282.7360	1.1834
2.6287	-284.0690	1.1933
2.8302	-285.4020	1.1980
3.0294	-286.7350	1.2075
3.2312	-288.1050	1.2144
3.4303	-289.4380	1.2236
3.6306	-290.7710	1.2322
3.8306	-292.0690	1.2414
4.0319	-293.4390	1.2506
4.2314	-294.7720	1.2585
4.4318	-296.1050	1.2599
4.6324	-297.4380	1.2579
4.8350	-298.7710	1.2441
5.0358	-300.1390	1.2240
5.2371	-301.4720	1.1820
5.4371	-302.8050	1.1147
5.6378	-304.1370	1.0104
5.8401	-305.4710	0.8606
6.0421	-306.8370	0.6366
6.2430	-308.1730	0.3156
6.4428	-309.5060	-0.1398
6.6451	-310.8730	-0.7725
6.8462	-312.1720	-1.6447
7.0456	-313.5050	-2.8299
7.2460	-314.8400	-4.3786
7.4463	-316.1760	-6.3408
7.6473	-316.8010	-7.1683
7.8477	-316.8010	-7.0730
8.0485	-316.8010	-7.0249
8.2500	-316.8000	-6.9938
8.4497	-316.8000	-6.9699
8.6497	-316.8000	-6.9560
8.8522	-316.8000	-6.9386
9.0534	-316.8000	-6.9281
9.2544	-316.8000	-6.9141
9.4550	-316.8000	-6.9063
9.6566	-316.8000	-6.9020
9.8578	-316.8000	-6.8934
10.0595	-316.8000	-6.8826
10.2597	-316.8000	-6.8785
10.4597	-316.8000	-6.8697
10.6598	-316.8000	-6.8636
10.8597	-316.8000	-6.8548
11.0596	-316.8000	-6.8530
11.2610	-316.8000	-6.8485
11.4608	-316.8000	-6.8450
11.6609	-316.8000	-6.8415
11.8609	-316.8000	-6.8336
12.0617	-316.8000	-6.8285
12.2617	-316.8000	-6.8260
12.4628	-316.8000	-6.8217
12.6627	-316.8000	-6.8200
12.8645	-316.8000	-6.8208
13.0656	-316.8000	-6.8099
13.2661	-316.8000	-6.8103
13.4669	-316.8000	-6.8048
13.6669	-316.8000	-6.8026
13.8689	-316.8000	-6.8028
14.0713	-316.8000	-6.7985
14.2717	-316.8000	-6.7975
14.4715	-316.8000	-6.7936
14.6751	-316.8000	-6.7891
14.8765	-316.8000	-6.7889
15.0768	-316.8000	-6.7860
15.2770	-316.8000	-6.7858
15.4771	-316.8000	-6.7815
15.6768	-316.8000	-6.7797
15.8767	-316.8000	-6.7791
16.0774	-316.8000	-6.7741
16.2778	-316.8000	-6.7718
16.4781	-316.8000	-6.7714
16.6786	-316.8000	-6.7701
16.8786	-316.8000	-6.7675
17.0789	-316.8000	-6.7695
17.2786	-316.8000	-6.7615
17.4792	-316.8000	-6.7598
17.6798	-316.8000	-6.7593
17.8798	-316.8000	-6.7598
18.0805	-316.8000	-6.7549
18.2820	-316.8000	-6.7571
18.4825	-316.8000	-6.7538
18.6828	-316.8000	-6.7530
18.8833	-316.8000	-6.7476
19.0828	-316.8000	-6.7452
19.2829	-316.8000	-6.7452
19.4825	-316.8000	-6.7441
19.6829	-316.8000	-6.7449
19.8840	-316.8000	-6.7415
20.0851	-316.8000	-6.7384
20.2868	-316.8000	-6.7392
20.4865	-316.8000	-6.7393
20.6873	-316.8000	-6.7347
20.8879	-316.8000	-6.7334
21.0899	-316.8000	-6.7302
21.2898	-316.8000	-6.7318
21.4912	-316.8000	-6.7273
21.6912	-316.8000	-6.7289
21.8920	-316.8000	-6.7274
22.0938	-316.8000	-6.7274
22.2963	-316.8000	-6.7241
22.4963	-316.8000	-6.7240
22.6957	-316.8000	-6.7213
22.8971	-316.8000	-6.7227
23.0968	-316.8000	-6.7179
23.2974	-316.8000	-6.7168
23.4983	-316.8000	-6.7150
23.6982	-316.8000	-6.7169
23.8975	-316.8000	-6.7151
24.0983	-316.8000	-6.7119
24.2977	-316.8000	-6.7126
24.4993	-316.8000	-6.7085
24.6993	-316.8000	-6.7069
24.8990	-316.8000	-6.7101
25.0990	-316.8000	-6.7100
25.2989	-316.8000	-6.7084
25.4993	-316.8000	-6.7061
25.6992	-316.8000	-6.7033
25.8993	-316.8000	-6.7035
26.0998	-316.8000	-6.7020
26.2999	-316.8000	-6.7016
26.4999	-316.8000	-6.6990
26.6996	-316.8000	-6.7008
26.8998	-316.8000	-6.6995
27.1010	-316.8000	-6.6995
27.3008	-316.8000	-6.6979
27.5011	-316.8000	-6.6978
27.7012	-316.8000	-6.6977
27.9018	-316.8000	-6.6936
28.1018	-316.8000	-6.6920
28.3017	-316.8000	-6.6904
28.5018	-316.8000	-6.6884
28.7022	-316.8000	-6.6835
28.9031	-316.8000	-6.6855
29.1039	-316.8000	-6.6891
29.3043	-316.8000	-6.6916
29.5037	-316.8000	-6.6895
29.7046	-316.8000	-6.6877
29.9061	-316.8000	-6.6828
30.1060	-316.8000	-6.6844
30.3073	-316.8000	-6.6852
30.5066	-316.8000	-6.6800
30.7068	-316.8000	-6.6817
30.9087	-316.8000	-6.6795
31.1092	-316.8000	-6.6790
31.3086	-316.8000	-6.6755
31.5092	-316.8000	-6.6762
31.7094	-316.8000	-6.6763
31.9095	-316.8000	-6.6718
32.1108	-316.8000	-6.6753
32.3123	-316.8000	-6.6727
32.5121	-316.8000	-6.6698
32.7123	-316.8000	-6.6728
32.9120	-316.8000	-6.6713
33.1130	-316.8000	-6.6708
33.3137	-316.8000	-6.6713
33.5167	-316.8000	-6.6713
33.7180	-316.8000	-6.6667
33.9186	-316.8000	-6.6690
34.1203	-316.8000	-6.6653
34.3206	-316.8000	-6.6632
34.5210	-316.8000	-6.6612
34.7214	-316.8000	-6.6654
34.9213	-316.8000	-6.6644
35.1207	-316.8000	-6.6635
35.3210	-316.8000	-6.6595
35.5214	-316.8000	-6.6630
35.7213	-316.8000	-6.6632
35.9213	-316.8000	-6.6642
36.1220	-316.8000	-6.6596
36.3219	-316.8000	-6.6616
36.5223	-316.8000	-6.6557
36.7223	-316.8000	-6.6592
36.9223	-316.8000	-6.6571
37.1221	-316.8000	-6.6544
37.3223	-316.8000	-6.6544
37.5223	-316.8000	-6.6532
37.7223	-316.8000	-6.6526
37.9218	-316.8000	-6.6522
38.1224	-316.8000	-6.6537
38.3218	-316.8000	-6.6514
38.5216	-316.8000	-6.6510
38.7231	-316.8000	-6.6468
38.9240	-316.8000	-6.6473
39.1248	-316.8000	-6.6438
39.3251	-316.8000	-6.6470
39.5251	-316.8000	-6.6450
39.7252	-316.8000	-6.6434
39.9252	-316.8000	-6.6394
40.1247	-316.8000	-6.6440
40.3258	-316.8000	-6.6435
40.5261	-316.8000	-6.6418
40.7276	-316.8000	-6.6416
40.9275	-316.8000	-6.6424
41.1279	-316.8000	-6.6402
41.3283	-316.8000	-6.6380
41.5292	-316.8000	-6.6382
41.7297	-316.8000	-6.6397
41.9298	-316.8000	-6.6374
42.1299	-316.8000	-6.6368
42.3299	-316.8000	-6.6366
42.5300	-316.8000	-6.6352
42.7300	-316.8000	-6.6354
42.9300	-316.8000	-6.6338
43.1313	-316.8000	-6.6348
43.3319	-316.8000	-6.6333
43.5324	-316.8000	-6.6312
43.7334	-316.8000	-6.6344
43.9331	-316.8000	-6.6299
44.1329	-316.8000	-6.6326
44.3333	-316.8000	-6.6312
44.5342	-316.8000	-6.6309
44.7350	-316.8000	-6.6270
44.9355	-316.8000	-6.6289
45.1358	-316.8000	-6.6280
45.3371	-316.8000	-6.6268
45.5370	-316.8000	-6.6275
45.7375	-316.8000	-6.6290
45.9386	-316.8000	-6.6290
46.1379	-316.8000	-6.6276
46.3385	-316.8000	-6.6271
46.5382	-316.8000	-6.6275
46.7385	-316.8000	-6.6258
46.9395	-316.8000	-6.6269
47.1395	-316.8000	-6.6238
47.3399	-316.8000	-6.6227
47.5400	-316.8000	-6.6204
47.7403	-316.8000	-6.6211
47.9400	-316.8000	-6.6219
48.1408	-316.8000	-6.6205
48.3412	-316.8000	-6.6205
48.5408	-316.8000	-6.6217
48.7413	-316.8000	-6.6209
48.9424	-316.8000	-6.6206
49.1419	-316.8000	-6.6185
49.3428	-316.8000	-6.6186
49.5439	-316.8000	-6.6189
49.7446	-316.8000	-6.6128
49.9449	-316.8000	-6.6148
50.1451	-316.8000	-6.6144
50.3451	-316.8000	-6.6121
50.5448	-316.8000	-6.6145
50.7450	-316.8000	-6.6148
50.9450	-316.8000	-6.6142
51.1458	-316.8000	-6.6128
51.3466	-316.8000	-6.6109
51.5465	-316.8000	-6.6128
51.7462	-316.8000	-6.6082
51.9470	-316.8000	-6.6119
52.1483	-316.8000	-6.6119
52.3484	-316.8000	-6.6067
52.5484	-316.8000	-6.6067
52.7480	-316.8000	-6.6074
52.9478	-316.8000	-6.6058
53.1479	-316.8000	-6.6051
53.3487	-316.8000	-6.6054
53.5500	-316.8000	-6.6032
53.7526	-316.8000	-6.6054
53.9521	-316.8000	-6.6049
54.1518	-316.8000	-6.6019
54.3525	-316.8000	-6.6018
54.5536	-316.8000	-6.6015
54.7543	-316.8000	-6.6019
54.9543	-316.8000	-6.6012
55.1538	-316.8000	-6.6028
55.3546	-316.8000	-6.6033
55.5547	-316.8000	-6.6035
55.7547	-316.8000	-6.6003
55.9538	-316.8000	-6.5992
56.1552	-316.8000	-6.6017
56.3561	-316.8000	-6.5999
56.5564	-316.8000	-6.6020
56.7563	-316.8000	-6.5994
56.9565	-316.8000	-6.6045
57.1566	-316.8000	-6.5954
57.3561	-316.8000	-6.5994
57.5567	-316.8000	-6.5957
57.7576	-316.8000	-6.5954
57.9582	-316.8000	-6.5963
58.1597	-316.8000	-6.5938
58.3601	-316.8000	-6.5948
58.5602	-316.8000	-6.5936
58.7610	-316.8000	-6.5906
58.9622	-316.8000	-6.5886
59.1641	-316.8000	-6.5965
59.3644	-316.8000	-6.5944
59.5653	-316.8000	-6.5924
59.7654	-316.8000	-6.5913
59.9651	-316.8000	-6.5919
60.1654	-316.8000	-6.5895
60.3657	-316.8000	-6.5925
60.5677	-316.8000	-6.5929
60.7683	-316.8000	-6.5905
60.9692	-316.8000	-6.5867
61.1690	-316.8000	-6.5877
61.3694	-316.8000	-6.5904
61.5690	-316.8000	-6.5812
61.7697	-316.8000	-6.5876
61.9702	-316.8000	-6.5867
62.1713	-316.8000	-6.5802
62.3723	-316.8000	-6.5816
62.5722	-316.8000	-6.5853
62.7726	-316.8000	-6.5815
62.9735	-316.8000	-6.5851
63.1734	-316.8000	-6.5801
63.3738	-316.8000	-6.5824
63.5731	-316.8000	-6.5841
63.7743	-316.8000	-6.5838
63.9740	-316.8000	-6.5822
64.1746	-316.8000	-6.5831
64.3756	-316.8000	-6.5864
64.5754	-316.8000	-6.5832
64.7749	-316.8000	-6.5800
64.9762	-316.8000	-6.5817
65.1767	-316.8000	-6.5791
65.3763	-316.8000	-6.5773
65.5777	-316.8000	-6.5744
65.7779	-316.8000	-6.5787
65.9781	-316.8000	-6.5786
66.1797	-316.8000	-6.5776
66.3792	-316.8000	-6.5774
66.5789	-316.8000	-6.5773
66.7791	-316.8000	-6.5772
66.9796	-316.8000	-6.5748
67.1804	-316.8000	-6.5777
67.3802	-316.8000	-6.5780
67.5802	-316.8000	-6.5720
67.7810	-316.8000	-6.5754
67.9811	-316.8000	-6.5745
68.1822	-316.8000	-6.5722
68.3824	-316.8000	-6.5746
68.5822	-316.8000	-6.5725
68.7822	-316.8000	-6.5746
68.9822	-316.8000	-6.5772
69.1827	-316.8000	-6.5725
69.3824	-316.8000	-6.5670
69.5826	-316.8000	-6.5714
69.7830	-316.8000	-6.5716
69.9844	-316.8000	-6.5713
70.1840	-316.8000	-6.5692
70.3850	-316.8000	-6.5700
70.5850	-316.8000	-6.5678
70.7850	-316.8000	-6.5683
70.9858	-316.8000	-6.5707
71.1866	-316.8000	-6.5665
71.3871	-316.8000	-6.5699
71.5876	-316.8000	-6.5694
71.7870	-316.8000	-6.5671
71.9878	-316.8000	-6.5651
72.1891	-316.8000	-6.5655
72.3894	-316.8000	-6.5667
72.5903	-316.8000	-6.5664
72.7901	-316.8000	-6.5636
72.9912	-316.8000	-6.5665
73.1919	-316.8000	-6.5607
73.3933	-316.8000	-6.5690
73.5936	-316.8000	-6.5671
73.7943	-316.8000	-6.5636
73.9940	-316.8000	-6.5634
74.1957	-316.8000	-6.5633
74.3950	-316.8000	-6.5637
74.5958	-316.8000	-6.5605
74.7960	-316.8000	-6.5616
74.9967	-316.8000	-6.5591
75.1970	-316.8000	-6.5578
75.3977	-316.8000	-6.5575
75.5979	-316.8000	-6.5583
75.7981	-316.8000	-6.5590
75.9983	-316.8000	-6.5532
76.1988	-316.8000	-6.5567
76.3988	-316.8000	-6.5577
76.5998	-316.8000	-6.5578
76.7999	-316.8000	-6.5575
77.0002	-316.8000	-6.5579
77.2016	-316.8000	-6.5561
77.4023	-316.8000	-6.5557
77.6021	-316.8000	-6.5559
77.8027	-316.8000	-6.5561
78.0036	-316.8000	-6.5541
78.2038	-316.8000	-6.5553
78.4040	-316.8000	-6.5569
78.6044	-316.8000	-6.5553
78.8041	-316.8000	-6.5534
79.0057	-316.8000	-6.5534
79.2055	-316.8000	-6.5525
79.4057	-316.8000	-6.5518
79.6051	-316.8000	-6.5506
79.8063	-316.8000	-6.5491
80.0064	-316.8000	-6.5523
80.2064	-316.8000	-6.5516
80.4064	-316.8000	-6.5483
80.6077	-316.8000	-6.5459
80.8073	-316.8000	-6.5476
81.0079	-316.8000	-6.5530
81.2084	-316.8000	-6.5485
81.4091	-316.8000	-6.5466
81.6093	-316.8000	-6.5512
81.8103	-316.8000	-6.5482
82.0124	-316.8000	-6.5497
82.2128	-316.8000	-6.5472
82.4149	-316.8000	-6.5500
82.6142	-316.8000	-6.5460
82.8162	-316.8000	-6.5481
83.0163	-316.8000	-6.5435
83.2171	-316.8000	-6.5452
83.4185	-316.8000	-6.5463
83.6192	-316.8000	-6.5460
83.8197	-316.8000	-6.5432
84.0207	-316.8000	-6.5442
84.2207	-316.8000	-6.5430
84.4203	-316.8000	-6.5444
84.6217	-316.8000	-6.5468
84.8214	-316.8000	-6.5435
85.0228	-316.8000	-6.5421
85.2236	-316.8000	-6.5397
85.4232	-316.8000	-6.5407
85.6241	-316.8000	-6.5422
85.8254	-316.8000	-6.5409
86.0261	-316.8000	-6.5410
86.2267	-316.8000	-6.5393
86.4266	-316.8000	-6.5398
86.6268	-316.8000	-6.5380
86.8262	-316.8000	-6.5393
87.0267	-316.8000	-6.5381
87.2264	-316.8000	-6.5377
87.4267	-316.8000	-6.5362
87.6263	-316.8000	-6.5370
87.8262	-316.8000	-6.5369
88.0277	-316.8000	-6.5337
88.2280	-316.8000	-6.5368
88.4274	-316.8000	-6.5355
88.6282	-316.8000	-6.5350
88.8290	-316.8000	-6.5357
89.0287	-316.8000	-6.5376
89.2290	-316.8000	-6.5331
89.4281	-316.8000	-6.5338
89.6290	-316.8000	-6.5374
89.8289	-316.8000	-6.5360
90.0298	-316.8000	-6.5373
90.2300	-316.8000	-6.5359
90.4306	-316.8000	-6.5354
90.6303	-316.8000	-6.5338
90.8304	-316.8000	-6.5300
91.0318	-316.8000	-6.5312
91.2329	-316.8000	-6.5313
91.4329	-316.8000	-6.5290
91.6325	-316.8000	-6.5316
91.8329	-316.8000	-6.5339
92.0324	-316.8000	-6.5327
92.2333	-316.8000	-6.5319
92.4350	-316.8000	-6.5311
92.6355	-316.8000	-6.5334
92.8364	-316.8000	-6.5292
93.0368	-316.8000	-6.5262
93.2362	-316.8000	-6.5280
93.4361	-316.8000	-6.5282
93.6369	-316.8000	-6.5268
93.8371	-316.8000	-6.5287
94.0364	-316.8000	-6.5255
94.2363	-316.8000	-6.5266
94.4378	-316.8000	-6.5273
94.6386	-316.8000	-6.5284
94.8387	-316.8000	-6.5306
95.0408	-316.8000	-6.5282
95.2403	-316.8000	-6.5253
95.4405	-316.8000	-6.5279
95.6415	-316.8000	-6.5243
95.8428	-316.8000	-6.5259
96.0426	-316.8000	-6.5227
96.2429	-316.8000	-6.5260
96.4428	-316.8000	-6.5231
96.6429	-316.8000	-6.5231
96.8429	-316.8000	-6.5219
97.0429	-316.8000	-6.5231
97.2429	-316.8000	-6.5222
97.4429	-316.8000	-6.5248
97.6429	-316.8000	-6.5208
97.8423	-316.8000	-6.5205
98.0439	-316.8000	-6.5238
98.2434	-316.8000	-6.5211
98.4451	-316.8000	-6.5211
98.6449	-316.8000	-6.5209
98.8461	-316.8000	-6.5210
99.0471	-316.8000	-6.5225
99.2470	-316.8000	-6.5200
99.4467	-316.8000	-6.5197
99.6475	-316.8000	-6.5214
99.8474	-316.8000	-6.5197
100.0488	-316.8000	-6.5200
100.2485	-316.8000	-6.5141
100.4510	-316.8000	-6.5197
100.6505	-316.8000	-6.5145
100.8505	-316.8000	-6.5159
101.0524	-316.8000	-6.5149
101.2527	-316.8000	-6.5168
101.4525	-316.8000	-6.5127
101.6527	-316.8000	-6.5172
101.8529	-316.8000	-6.5146
102.0537	-316.8000	-6.5191
102.2533	-316.8000	-6.5175
102.4537	-316.8000	-6.5184
102.6537	-316.8000	-6.5159
102.8538	-316.8000	-6.5158
103.0533	-316.8000	-6.5111
103.2544	-316.8000	-6.5100
103.4557	-316.8000	-6.5123
103.6568	-316.8000	-6.5141
103.8574	-316.8000	-6.5111
104.0578	-316.8000	-6.5131
104.2572	-316.8000	-6.5110
104.4578	-316.8000	-6.5116
104.6580	-316.8000	-6.5062
104.8575	-316.8000	-6.5096
105.0595	-316.8000	-6.5103
105.2604	-316.8000	-6.5082
105.4604	-316.8000	-6.5098
105.6608	-316.8000	-6.5125
105.8613	-316.8000	-6.5103
106.0625	-316.8000	-6.5090
106.2626	-316.8000	-6.5094
106.4625	-316.8000	-6.5091
106.6624	-316.8000	-6.5094
106.8634	-316.8000	-6.5059
107.0635	-316.8000	-6.5062
107.2634	-316.8000	-6.5076
107.4635	-316.8000	-6.5034
107.6637	-316.8000	-6.5080
107.8636	-316.8000	-6.5060
108.0648	-316.8000	-6.5066
108.2647	-316.8000	-6.5078
108.4654	-316.8000	-6.5081
108.6657	-316.8000	-6.5097
108.8659	-316.8000	-6.5092
109.0653	-316.8000	-6.5040
109.2669	-316.8000	-6.5039
109.4673	-316.8000	-6.5053
109.6691	-316.8000	-6.5056
109.8690	-316.8000	-6.5038
110.0690	-316.8000	-6.5077
110.2683	-316.8000	-6.5075
110.4683	-316.8000	-6.5055
110.6689	-316.8000	-6.5087
110.8700	-316.8000	-6.5019
111.0704	-316.8000	-6.4995
111.2706	-316.8000	-6.5006
111.4707	-316.8000	-6.5026
111.6705	-316.8000	-6.5038
111.8715	-316.8000	-6.4992
112.0730	-316.8000	-6.5012
112.2732	-316.8000	-6.4993
112.4739	-316.8000	-6.4995
112.6742	-316.8000	-6.4996
112.8733	-316.8000	-6.5003
113.0746	-316.8000	-6.4990
113.2743	-316.8000	-6.5001
113.4748	-316.8000	-6.4983
113.6754	-316.8000	-6.5010
113.8759	-316.8000	-6.5012
114.0753	-316.8000	-6.4993
114.2757	-316.8000	-6.4955
114.4770	-316.8000	-6.4958
114.6769	-316.8000	-6.4946
114.8770	-316.8000	-6.4936
115.0770	-316.8000	-6.4932
115.2764	-316.8000	-6.4883
115.4777	-316.8000	-6.4930
115.6779	-316.8000	-6.4947
115.8790	-316.8000	-6.4930
116.0790	-316.8000	-6.4951
116.2798	-316.8000	-6.4954
116.4804	-316.8000	-6.4972
116.6806	-316.8000	-6.4940
116.8806	-316.8000	-6.4970
117.0804	-316.8000	-6.4937
117.2807	-316.8000	-6.4976
117.4809	-316.8000	-6.4941
117.6804	-316.8000	-6.4958
117.8806	-316.8000	-6.4937
118.0832	-316.8000	-6.4946
118.2827	-316.8000	-6.4916
118.4831	-316.8000	-6.4936
118.6826	-316.8000	-6.4913
118.8830	-316.8000	-6.5006
119.0837	-316.8000	-6.4908
119.2843	-316.8000	-6.4931
119.4839	-316.8000	-6.4905
119.6843	-316.8000	-6.4903
119.8841	-316.8000	-6.4910
120.0843	-316.8000	-6.4912
120.2838	-316.8000	-6.4848
120.4849	-316.8000	-6.4877
120.6862	-316.8000	-6.4894
120.8867	-316.8000	-6.4857
121.0866	-316.8000	-6.4891
121.2877	-316.8000	-6.4910
121.4877	-316.8000	-6.4880
121.6892	-316.8000	-6.4873
121.8895	-316.8000	-6.4906
122.0908	-316.8000	-6.4880
122.2907	-316.8000	-6.4864
122.4908	-316.8000	-6.4857
122.6907	-316.8000	-6.4875
122.8907	-316.8000	-6.4877
123.0925	-316.8000	-6.4849
123.2925	-316.8000	-6.4849
123.4930	-316.8000	-6.4876
123.6927	-316.8000	-6.4846
123.8944	-316.8000	-6.4848
124.0943	-316.8000	-6.4839
124.2944	-316.8000	-6.4844
124.4964	-316.8000	-6.4835
124.6962	-316.8000	-6.4842
124.8969	-316.8000	-6.4848
125.0984	-316.8000	-6.4792
125.2980	-316.8000	-6.4839
125.4976	-316.8000	-6.4804
125.6979	-316.8000	-6.4818
125.8981	-316.8000	-6.4837
126.0980	-316.8000	-6.4786
126.2976	-316.8000	-6.4823
126.4995	-316.8000	-6.4828
126.7012	-316.8000	-6.4816
126.9007	-316.8000	-6.4814
127.1016	-316.8000	-6.4809
127.3027	-316.8000	-6.4784
127.5028	-316.8000	-6.4811
127.7041	-316.8000	-6.4788
127.9051	-316.8000	-6.4817
128.1047	-316.8000	-6.4820
128.3052	-316.8000	-6.4822
128.5047	-316.8000	-6.4848
128.7053	-316.8000	-6.4814
128.9054	-316.8000	-6.4795
129.1055	-316.8000	-6.4764
129.3076	-316.8000	-6.4801
129.5081	-316.8000	-6.4788
129.7084	-316.8000	-6.4790
129.9093	-316.8000	-6.4778
130.1102	-316.8000	-6.4770
130.3114	-316.8000	-6.4765
130.5109	-316.8000	-6.4775
130.7106	-316.8000	-6.4792
130.9108	-316.8000	-6.4755
131.1108	-316.8000	-6.4803
131.3108	-316.8000	-6.4757
131.5108	-316.8000	-6.4751
131.7116	-316.8000	-6.4791
131.9116	-316.8000	-6.4783
132.1127	-316.8000	-6.4772
132.3132	-316.8000	-6.4783
132.5128	-316.8000	-6.4752
132.7126	-316.8000	-6.4772
132.9135	-316.8000	-6.4775
133.1146	-316.8000	-6.4767
133.3152	-316.8000	-6.4742
133.5185	-316.8000	-6.4749
133.7174	-316.8000	-6.4766
133.9168	-316.8000	-6.4711
134.1172	-316.8000	-6.4737
134.3178	-316.8000	-6.4756
134.5179	-316.8000	-6.4737
134.7178	-316.8000	-6.4801
134.9188	-316.8000	-6.4733
135.1204	-316.8000	-6.4745
135.3208	-316.8000	-6.4711
135.5207	-316.8000	-6.4677
135.7209	-316.8000	-6.4697
135.9206	-316.8000	-6.4690
136.1210	-316.8000	-6.4688
136.3231	-316.8000	-6.4668
136.5238	-316.8000	-6.4652
136.7241	-316.8000	-6.4648
136.9243	-316.8000	-6.4677
137.1256	-316.8000	-6.4657
137.3273	-316.8000	-6.4666
137.5280	-316.8000	-6.4678
137.7281	-316.8000	-6.4701
137.9286	-316.8000	-6.4704
138.1295	-316.8000	-6.4682
138.3292	-316.8000	-6.4655
138.5302	-316.8000	-6.4666
138.7301	-316.8000	-6.4649
138.9298	-316.8000	-6.4692
139.1313	-316.8000	-6.4654
139.3309	-316.8000	-6.4681
139.5309	-316.8000	-6.4694
139.7330	-316.8000	-6.4687
139.9347	-316.8000	-6.4655
140.1330	-316.8000	-6.4674
140.3328	-316.8000	-6.4651
140.5331	-316.8000	-6.4667
140.7339	-316.8000	-6.4707
140.9345	-316.8000	-6.4655
141.1361	-316.8000	-6.4659
141.3357	-316.8000	-6.4655
141.5361	-316.8000	-6.4676
141.7371	-316.8000	-6.4636
141.9386	-316.8000	-6.4663
142.1387	-316.8000	-6.4611
142.3393	-316.8000	-6.4666
142.5392	-316.8000	-6.4626
142.7386	-316.8000	-6.4653
142.9386	-316.8000	-6.4673
143.1393	-316.8000	-6.4661
143.3394	-316.8000	-6.4621
143.5386	-316.8000	-6.4606
143.7396	-316.8000	-6.4632
143.9408	-316.8000	-6.4645
144.1424	-316.8000	-6.4628
144.3422	-316.8000	-6.4624
144.5433	-316.8000	-6.4594
144.7430	-316.8000	-6.4596
144.9433	-316.8000	-6.4615
145.1430	-316.8000	-6.4620
145.3439	-316.8000	-6.4595
145.5455	-316.8000	-6.4598
145.7463	-316.8000	-6.4601
145.9472	-316.8000	-6.4635
146.1486	-316.8000	-6.4592
146.3495	-316.8000	-6.4578
146.5486	-316.8000	-6.4585
146.7488	-316.8000	-6.4544
146.9505	-316.8000	-6.4571
147.1500	-316.8000	-6.4572
147.3501	-316.8000	-6.4561
147.5502	-316.8000	-6.4562
147.7502	-316.8000	-6.4571
147.9501	-316.8000	-6.4556
148.1499	-316.8000	-6.4570
148.3510	-316.8000	-6.4529
148.5507	-316.8000	-6.4553
148.7529	-316.8000	-6.4544
148.9538	-316.8000	-6.4545
149.1548	-316.8000	-6.4548
149.3580	-316.8000	-6.4560
149.5567	-316.8000	-6.4548
149.7577	-316.8000	-6.4536
149.9588	-316.8000	-6.4515
150.1604	-316.8000	-6.4554
150.3599	-316.8000	-6.4543
150.5602	-316.8000	-6.4543
150.7610	-316.8000	-6.4519
150.9610	-316.8000	-6.4537
151.1610	-316.8000	-6.4573
151.3610	-316.8000	-6.4554
151.5624	-316.8000	-6.4522
151.7636	-316.8000	-6.4520
151.9632	-316.8000	-6.4538
152.1631	-316.8000	-6.4537
152.3646	-316.8000	-6.4527
152.5661	-316.8000	-6.4511
152.7662	-316.8000	-6.4524
152.9662	-316.8000	-6.4517
153.1665	-316.8000	-6.4561
153.3660	-316.8000	-6.4524
153.5672	-316.8000	-6.4525
153.7673	-316.8000	-6.4531
153.9684	-316.8000	-6.4528
154.1677	-316.8000	-6.4515
154.3693	-316.8000	-6.4511
154.5690	-316.8000	-6.4519
154.7690	-316.8000	-6.4552
154.9700	-316.8000	-6.4493
155.1710	-316.8000	-6.4438
155.3710	-316.8000	-6.4482
155.5710	-316.8000	-6.4492
155.7711	-316.8000	-6.4496
155.9710	-316.8000	-6.4489
156.1709	-316.8000	-6.4487
156.3710	-316.8000	-6.4494
156.5720	-316.8000	-6.4468
156.7726	-316.8000	-6.4485
156.9718	-316.8000	-6.4457
157.1736	-316.8000	-6.4512
157.3734	-316.8000	-6.4514
157.5732	-316.8000	-6.4487
157.7734	-316.8000	-6.4495
157.9741	-316.8000	-6.4491
158.1746	-316.8000	-6.4511
158.3744	-316.8000	-6.4474
158.5750	-316.8000	-6.4482
158.7754	-316.8000	-6.4507
158.9756	-316.8000	-6.4487
159.1749	-316.8000	-6.4498
159.3753	-316.8000	-6.4472
159.5766	-316.8000	-6.4461
159.7778	-316.8000	-6.4443
159.9787	-316.8000	-6.4448
160.1783	-316.8000	-6.4462
160.3789	-316.8000	-6.4457
160.5798	-316.8000	-6.4477
160.7799	-316.8000	-6.4440
160.9803	-316.8000	-6.4447
161.1809	-316.8000	-6.4462
161.3812	-316.8000	-6.4410
161.5820	-316.8000	-6.4410
161.7834	-316.8000	-6.4403
161.9847	-316.8000	-6.4396
162.1857	-316.8000	-6.4411
162.3852	-316.8000	-6.4394
162.5849	-316.8000	-6.4395
162.7850	-316.8000	-6.4414
162.9850	-316.8000	-6.4425
163.1859	-316.8000	-6.4390
163.3860	-316.8000	-6.4401
163.5867	-316.8000	-6.4401
163.7862	-316.8000	-6.4398
163.9866	-316.8000	-6.4373
164.1858	-316.8000	-6.4401
164.3867	-316.8000	-6.4388
164.5865	-316.8000	-6.4414
164.7866	-316.8000	-6.4381
164.9865	-316.8000	-6.4393
165.1874	-316.8000	-6.4400
165.3876	-316.8000	-6.4407
165.5876	-316.8000	-6.4418
165.7876	-316.8000	-6.4416
165.9889	-316.8000	-6.4400
166.1889	-316.8000	-6.4381
166.3891	-316.8000	-6.4360
166.5900	-316.8000	-6.4373
166.7902	-316.8000	-6.4380
166.9910	-316.8000	-6.4390
167.1911	-316.8000	-6.4418
167.3921	-316.8000	-6.4399
167.5929	-316.8000	-6.4416
167.7929	-316.8000	-6.4394
167.9929	-316.8000	-6.4372
168.1932	-316.8000	-6.4369
168.3939	-316.8000	-6.4364
168.5947	-316.8000	-6.4368
168.7939	-316.8000	-6.4383
168.9956	-316.8000	-6.4365
169.1950	-316.8000	-6.4382
169.3956	-316.8000	-6.4371
169.5949	-316.8000	-6.4363
169.7957	-316.8000	-6.4349
169.9957	-316.8000	-6.4371
170.1967	-316.8000	-6.4363
170.3963	-316.8000	-6.4344
170.5969	-316.8000	-6.4346
170.7973	-316.8000	-6.4338
170.9970	-316.8000	-6.4311
171.1978	-316.8000	-6.4364
171.3981	-316.8000	-6.4361
171.5981	-316.8000	-6.4365
171.7978	-316.8000	-6.4351
171.9988	-316.8000	-6.4321
172.1992	-316.8000	-6.4379
172.3991	-316.8000	-6.4365
172.5992	-316.8000	-6.4350
172.8013	-316.8000	-6.4315
173.0028	-316.8000	-6.4333
173.2021	-316.8000	-6.4311
173.4020	-316.8000	-6.4352
173.6036	-316.8000	-6.4306
173.8042	-316.8000	-6.4264
174.0041	-316.8000	-6.4302
174.2041	-316.8000	-6.4305
174.4048	-316.8000	-6.4304
174.6045	-316.8000	-6.4298
174.8049	-316.8000	-6.4342
175.0051	-316.8000	-6.4304
175.2059	-316.8000	-6.4302
175.4075	-316.8000	-6.4295
175.6081	-316.8000	-6.4307
175.8089	-316.8000	-6.4307
176.0091	-316.8000	-6.4294
176.2097	-316.8000	-6.4298
176.4093	-316.8000	-6.4311
176.6097	-316.8000	-6.4299
176.8100	-316.8000	-6.4280
177.0105	-316.8000	-6.4304
177.2103	-316.8000	-6.4320
177.4103	-316.8000	-6.4280
177.6107	-316.8000	-6.4299
177.8108	-316.8000	-6.4295
178.0110	-316.8000	-6.4287
178.2116	-316.8000	-6.4302
178.4115	-316.8000	-6.4293
178.6122	-316.8000	-6.4310
178.8139	-316.8000	-6.4290
179.0149	-316.8000	-6.4278
179.2141	-316.8000	-6.4298
179.4150	-316.8000	-6.4278
179.6152	-316.8000	-6.4269
179.8166	-316.8000	-6.4272
180.0165	-316.8000	-6.4251
180.2165	-316.8000	-6.4230
180.4169	-316.8000	-6.4267
180.6182	-316.8000	-6.4265
180.8190	-316.8000	-6.4250
181.0195	-316.8000	-6.4264
181.2195	-316.8000	-6.4231
181.4191	-316.8000	-6.4249
181.6193	-316.8000	-6.4230
181.8191	-316.8000	-6.4219
182.0198	-316.8000	-6.4227
182.2198	-316.8000	-6.4223
182.4199	-316.8000	-6.4242
182.6205	-316.8000	-6.4233
182.8204	-316.8000	-6.4224
183.0205	-316.8000	-6.4214
183.2210	-316.8000	-6.4223
183.4211	-316.8000	-6.4219
183.6221	-316.8000	-6.4238
183.8225	-316.8000	-6.4226
184.0229	-316.8000	-6.4256
184.2232	-316.8000	-6.4252
184.4235	-316.8000	-6.4219
184.6236	-316.8000	-6.4237
184.8235	-316.8000	-6.4229
185.0237	-316.8000	-6.4224
185.2247	-316.8000	-6.4206
185.4241	-316.8000	-6.4183
185.6242	-316.8000	-6.4232
185.8254	-316.8000	-6.4226
186.0251	-316.8000	-6.4218
186.2252	-316.8000	-6.4217
186.4252	-316.8000	-6.4198
186.6256	-316.8000	-6.4210
186.8252	-316.8000	-6.4204
187.0261	-316.8000	-6.4200
187.2263	-316.8000	-6.4190
187.4270	-316.8000	-6.4184
187.6271	-316.8000	-6.4204
187.8275	-316.8000	-6.4199
188.0272	-316.8000	-6.4206
188.2279	-316.8000	-6.4205
188.4279	-316.8000	-6.4170
188.6274	-316.8000	-6.4183
188.8276	-316.8000	-6.4203
189.0288	-316.8000	-6.4182
189.2282	-316.8000	-6.4197
189.4298	-316.8000	-6.4187
189.6297	-316.8000	-6.4152
189.8293	-316.8000	-6.4160
190.0297	-316.8000	-6.4155
190.2291	-316.8000	-6.4172
190.4299	-316.8000	-6.4183
190.6304	-316.8000	-6.4162
190.8320	-316.8000	-6.4134
191.0313	-316.8000	-6.4135
191.2322	-316.8000	-6.4181
191.4330	-316.8000	-6.4193
191.6344	-316.8000	-6.4169
191.8340	-316.8000	-6.4155
192.0354	-316.8000	-6.4165
192.2367	-316.8000	-6.4185
192.4374	-316.8000	-6.4155
192.6382	-316.8000	-6.4143
192.8384	-316.8000	-6.4154
193.0392	-316.8000	-6.4157
193.2408	-316.8000	-6.4173
193.4406	-316.8000	-6.4169
193.6413	-316.8000	-6.4164
193.8412	-316.8000	-6.4154
194.0412	-316.8000	-6.4144
194.2417	-316.8000	-6.4134
194.4410	-316.8000	-6.4105
194.6420	-316.8000	-6.4097
194.8422	-316.8000	-6.4132
195.0445	-316.8000	-6.4125
195.2458	-316.8000	-6.4131
195.4458	-316.8000	-6.4144
195.6459	-316.8000	-6.4100
195.8461	-316.8000	-6.4105
196.0470	-316.8000	-6.4120
196.2478	-316.8000	-6.4136
196.4472	-316.8000	-6.4096
196.6476	-316.8000	-6.4106
196.8489	-316.8000	-6.4097
197.0484	-316.8000	-6.4111
197.2497	-316.8000	-6.4101
197.4494	-316.8000	-6.4135
197.6498	-316.8000	-6.4093
197.8504	-316.8000	-6.4099
198.0519	-316.8000	-6.4120
198.2515	-316.8000	-6.4125
198.4512	-316.8000	-6.4129
198.6514	-316.8000	-6.4140
198.8515	-316.8000	-6.4095
199.0514	-316.8000	-6.4121
199.2524	-316.8000	-6.4110
199.4531	-316.8000	-6.4079
199.6536	-316.8000	-6.4100
199.8544	-316.8000	-6.4130
200.0552	-316.8000	-6.4073
200.2570	-316.8000	-6.4102
200.4573	-316.8000	-6.4093
200.6577	-316.8000	-6.4102
200.8584	-316.8000	-6.4087
201.0596	-316.8000	-6.4051
201.2596	-316.8000	-6.4041
201.4599	-316.8000	-6.4034
201.6604	-316.8000	-6.4032
201.8613	-316.8000	-6.4068
202.0625	-316.8000	-6.4053
202.2633	-316.8000	-6.4063
202.4637	-316.8000	-6.4032
202.6633	-316.8000	-6.4042
202.8633	-316.8000	-6.4064
203.0633	-316.8000	-6.4046
203.2637	-316.8000	-6.4046
203.4635	-316.8000	-6.4006
203.6636	-316.8000	-6.4039
203.8635	-316.8000	-6.4013
204.0647	-316.8000	-6.4040
204.2661	-316.8000	-6.4058
204.4669	-316.8000	-6.4099
204.6672	-316.8000	-6.4036
204.8677	-316.8000	-6.4014
205.0680	-316.8000	-6.4045
205.2684	-316.8000	-6.4053
205.4688	-316.8000	-6.4060
205.6682	-316.8000	-6.4014
205.8685	-316.8000	-6.4052
206.0687	-316.8000	-6.4017
206.2694	-316.8000	-6.4000
206.4700	-316.8000	-6.4064
206.6692	-316.8000	-6.3998
206.8692	-316.8000	-6.4018
207.0704	-316.8000	-6.3990
207.2716	-316.8000	-6.4005
207.4729	-316.8000	-6.4022
207.6732	-316.8000	-6.4027
207.8753	-316.8000	-6.4014
208.0772	-316.8000	-6.4018
208.2772	-316.8000	-6.4046
208.4794	-316.8000	-6.4032
208.6793	-316.8000	-6.4045
208.8792	-316.8000	-6.4045
209.0794	-316.8000	-6.4036
209.2801	-316.8000	-6.4023
209.4794	-316.8000	-6.4044
209.6817	-316.8000	-6.4030
209.8814	-316.8000	-6.4050
210.0815	-316.8000	-6.4034
210.2820	-316.8000	-6.4018
210.4831	-316.8000	-6.4030
210.6822	-316.8000	-6.3999
210.8833	-316.8000	-6.4008
211.0835	-316.8000	-6.4018
211.2838	-316.8000	-6.4000
211.4838	-316.8000	-6.3982
211.6834	-316.8000	-6.4009
211.8838	-316.8000	-6.3988
212.0833	-316.8000	-6.3960
212.2835	-316.8000	-6.4008
212.4852	-316.8000	-6.3995
212.6859	-316.8000	-6.4001
212.8863	-316.8000	-6.3993
213.0880	-316.8000	-6.3980
213.2878	-316.8000	-6.4010
213.4881	-316.8000	-6.3983
213.6886	-316.8000	-6.3977
213.8895	-316.8000	-6.4014
214.0892	-316.8000	-6.3990
214.2905	-316.8000	-6.3974
214.4903	-316.8000	-6.3954
214.6916	-316.8000	-6.3956
214.8916	-316.8000	-6.3942
215.0933	-316.8000	-6.3971
215.2946	-316.8000	-6.3952
215.4963	-316.8000	-6.3997
215.6971	-316.8000	-6.3989
215.8975	-316.8000	-6.3960
216.0990	-316.8000	-6.3935
216.2984	-316.8000	-6.3956
216.4998	-316.8000	-6.3913
216.6994	-316.8000	-6.3974
216.8999	-316.8000	-6.3966
217.1002	-316.8000	-6.3929
217.2999	-316.8000	-6.3972
217.4993	-316.8000	-6.3968
217.7004	-316.8000	-6.3926
217.9009	-316.8000	-6.3914
218.1007	-316.8000	-6.3925
218.3017	-316.8000	-6.3922
218.5013	-316.8000	-6.3929
218.7016	-316.8000	-6.3911
218.9026	-316.8000	-6.3927
219.1030	-316.8000	-6.3954
219.3033	-316.8000	-6.3969
219.5040	-316.8000	-6.3944
219.7046	-316.8000	-6.3955
219.9046	-316.8000	-6.3926
220.1055	-316.8000	-6.3928
220.3055	-316.8000	-6.3914
220.5053	-316.8000	-6.3934
220.7061	-316.8000	-6.3889
220.9072	-316.8000	-6.3915
221.1078	-316.8000	-6.3930
221.3084	-316.8000	-6.3919
221.5093	-316.8000	-6.3927
221.7087	-316.8000	-6.3915
221.9086	-316.8000	-6.3910
222.1095	-316.8000	-6.3923
222.3096	-316.8000	-6.3897
222.5123	-316.8000	-6.3911
222.7114	-316.8000	-6.3915
222.9126	-316.8000	-6.3891
223.1133	-316.8000	-6.3895
223.3137	-316.8000	-6.3899
223.5134	-316.8000	-6.3887
223.7140	-316.8000	-6.3871
223.9133	-316.8000	-6.3877
224.1138	-316.8000	-6.3883
224.3139	-316.8000	-6.3916
224.5140	-316.8000	-6.3887
224.7139	-316.8000	-6.3909
224.9140	-316.8000	-6.3878
225.1140	-316.8000	-6.3869
225.3148	-316.8000	-6.3889
225.5146	-316.8000	-6.3902
225.7148	-316.8000	-6.3899
225.9155	-316.8000	-6.3887
226.1171	-316.8000	-6.3876
226.3164	-316.8000	-6.3854
226.5165	-316.8000	-6.3860
226.7171	-316.8000	-6.3871
226.9165	-316.8000	-6.3847
227.1173	-316.8000	-6.3873
227.3182	-316.8000	-6.3874
227.5182	-316.8000	-6.3872
227.7177	-316.8000	-6.3871
227.9195	-316.8000	-6.3879
228.1200	-316.8000	-6.3897
228.3199	-316.8000	-6.3843
228.5195	-316.8000	-6.3864
228.7194	-316.8000	-6.3870
228.9195	-316.8000	-6.3887
229.1209	-316.8000	-6.3892
229.3215	-316.8000	-6.3914
229.5217	-316.8000	-6.3878
229.7216	-316.8000	-6.3843
229.9231	-316.8000	-6.3837
230.1224	-316.8000	-6.3867
230.3225	-316.8000	-6.3902
230.5235	-316.8000	-6.3858
230.7238	-316.8000	-6.3875
230.9241	-316.8000	-6.3841
231.1234	-316.8000	-6.3889
231.3240	-316.8000	-6.3860
231.5239	-316.8000	-6.3862
231.7238	-316.8000	-6.3838
231.9246	-316.8000	-6.3849
232.1253	-316.8000	-6.3853
232.3249	-316.8000	-6.3846
232.5257	-316.8000	-6.3826
232.7259	-316.8000	-6.3825
232.9277	-316.8000	-6.3830
233.1273	-316.8000	-6.3847
233.3266	-316.8000	-6.3875
233.5278	-316.8000	-6.3861
233.7296	-316.8000	-6.3849
233.9306	-316.8000	-6.3822
234.1316	-316.8000	-6.3812
234.3316	-316.8000	-6.3832
234.5331	-316.8000	-6.3825
234.7327	-316.8000	-6.3807
234.9339	-316.8000	-6.3842
235.1339	-316.8000	-6.3797
235.3339	-316.8000	-6.3782
235.5350	-316.8000	-6.3804
235.7355	-316.8000	-6.3792
235.9361	-316.8000	-6.3799
236.1359	-316.8000	-6.3763
236.3378	-316.8000	-6.3772
236.5375	-316.8000	-6.3798
236.7386	-316.8000	-6.3821
236.9390	-316.8000	-6.3798
237.1386	-316.8000	-6.3794
237.3394	-316.8000	-6.3797
237.5391	-316.8000	-6.3810
237.7404	-316.8000	-6.3779
237.9415	-316.8000	-6.3786
238.1417	-316.8000	-6.3804
238.3416	-316.8000	-6.3781
238.5418	-316.8000	-6.3798
238.7417	-316.8000	-6.3799
238.9419	-316.8000	-6.3800
239.1416	-316.8000	-6.3796
239.3418	-316.8000	-6.3753
239.5417	-316.8000	-6.3734
239.7436	-316.8000	-6.3759
239.9440	-316.8000	-6.3767
240.1435	-316.8000	-6.3768
240.3444	-316.8000	-6.3774
240.5435	-316.8000	-6.3736
240.7439	-316.8000	-6.3806
240.9435	-316.8000	-6.3776
241.1449	-316.8000	-6.3737
241.3446	-316.8000	-6.3713
241.5450	-316.8000	-6.3743
241.7453	-316.8000	-6.3725
241.9447	-316.8000	-6.3767
242.1449	-316.8000	-6.3740
242.3445	-316.8000	-6.3728
242.5463	-316.8000	-6.3743
242.7474	-316.8000	-6.3760
242.9486	-316.8000	-6.3736
243.1495	-316.8000	-6.3752
243.3510	-316.8000	-6.3750
243.5511	-316.8000	-6.3744
243.7516	-316.8000	-6.3752
243.9518	-316.8000	-6.3718
244.1519	-316.8000	-6.3733
244.3516	-316.8000	-6.3738
244.5517	-316.8000	-6.3741
244.7524	-316.8000	-6.3746
244.9518	-316.8000	-6.3723
245.1518	-316.8000	-6.3713
245.3518	-316.8000	-6.3736
245.5518	-316.8000	-6.3731
245.7522	-316.8000	-6.3706
245.9526	-316.8000	-6.3718
246.1542	-316.8000	-6.3746
246.3540	-316.8000	-6.3706
246.5542	-316.8000	-6.3702
246.7537	-316.8000	-6.3713
246.9555	-316.8000	-6.3733
247.1568	-316.8000	-6.3704
247.3566	-316.8000	-6.3703
247.5569	-316.8000	-6.3703
247.7577	-316.8000	-6.3696
247.9587	-316.8000	-6.3697
248.1585	-316.8000	-6.3697
248.3590	-316.8000	-6.3718
248.5605	-316.8000	-6.3684
248.7608	-316.8000	-6.3716
248.9611	-316.8000	-6.3754
249.1605	-316.8000	-6.3711
249.3631	-316.8000	-6.3686
249.5629	-316.8000	-6.3687
249.7639	-316.8000	-6.3704
249.9637	-316.8000	-6.3660
250.1641	-316.8000	-6.3674
250.3641	-316.8000	-6.3707
250.5642	-316.8000	-6.3726
250.7643	-316.8000	-6.3673
250.9642	-316.8000	-6.3705
251.1639	-316.8000	-6.3673
251.3640	-316.8000	-6.3664
251.5642	-316.8000	-6.3730
251.7642	-316.8000	-6.3698
251.9641	-316.8000	-6.3703
252.1647	-316.8000	-6.3733
252.3653	-316.8000	-6.3696
252.5656	-316.8000	-6.3672
252.7659	-316.8000	-6.3648
252.9666	-316.8000	-6.3699
253.1680	-316.8000	-6.3704
253.3681	-316.8000	-6.3671
253.5697	-316.8000	-6.3621
253.7698	-316.8000	-6.3679
253.9705	-316.8000	-6.3711
254.1697	-316.8000	-6.3657
254.3706	-316.8000	-6.3664
254.5707	-316.8000	-6.3719
254.7713	-316.8000	-6.3703
254.9708	-316.8000	-6.3621
255.1711	-316.8000	-6.3617
255.3716	-316.8000	-6.3664
255.5720	-316.8000	-6.3644
255.7723	-316.8000	-6.3675
255.9719	-316.8000	-6.3660
256.1725	-316.8000	-6.3659
256.3719	-316.8000	-6.3680
256.5722	-316.8000	-6.3666
256.7719	-316.8000	-6.3619
256.9720	-316.8000	-6.3648
257.1720	-316.8000	-6.3668
257.3722	-316.8000	-6.3669
257.5720	-316.8000	-6.3637
257.7734	-316.8000	-6.3637
257.9736	-316.8000	-6.3626
258.1738	-316.8000	-6.3615
258.3739	-316.8000	-6.3621
258.5749	-316.8000	-6.3641
258.7752	-316.8000	-6.3613
258.9749	-316.8000	-6.3653
259.1746	-316.8000	-6.3636
259.3766	-316.8000	-6.3631
259.5757	-316.8000	-6.3644
259.7776	-316.8000	-6.3649
259.9788	-316.8000	-6.3632
260.1798	-316.8000	-6.3637
260.3812	-316.8000	-6.3624
260.5814	-316.8000	-6.3600
260.7822	-316.8000	-6.3607
260.9818	-316.8000	-6.3598
261.1840	-316.8000	-6.3633
261.3841	-316.8000	-6.3628
261.5837	-316.8000	-6.3624
261.7854	-316.8000	-6.3593
261.9876	-316.8000	-6.3573
262.1869	-316.8000	-6.3591
262.3883	-316.8000	-6.3600
262.5878	-316.8000	-6.3596
262.7886	-316.8000	-6.3580
262.9887	-316.8000	-6.3587
263.1896	-316.8000	-6.3610
263.3900	-316.8000	-6.3611
263.5898	-316.8000	-6.3617
263.7903	-316.8000	-6.3583
263.9904	-316.8000	-6.3605
264.1897	-316.8000	-6.3612
264.3901	-316.8000	-6.3601
264.5903	-316.8000	-6.3611
264.7911	-316.8000	-6.3589
264.9909	-316.8000	-6.3578
265.1908	-316.8000	-6.3615
265.3920	-316.8000	-6.3602
265.5920	-316.8000	-6.3559
265.7929	-316.8000	-6.3581
265.9932	-316.8000	-6.3580
266.1941	-316.8000	-6.3595
266.3941	-316.8000	-6.3599
266.5938	-316.8000	-6.3560
266.7937	-316.8000	-6.3593
266.9943	-316.8000	-6.3581
267.1938	-316.8000	-6.3583
267.3945	-316.8000	-6.3594
267.5938	-316.8000	-6.3588
267.7942	-316.8000	-6.3545
267.9956	-316.8000	-6.3600
268.1949	-316.8000	-6.3578
268.3977	-316.8000	-6.3574
268.5983	-316.8000	-6.3560
268.7991	-316.8000	-6.3599
269.0004	-316.8000	-6.3573
269.2008	-316.8000	-6.3539
269.4022	-316.8000	-6.3579
269.6021	-316.8000	-6.3541
269.8034	-316.8000	-6.3553
270.0037	-316.8000	-6.3596
270.2038	-316.8000	-6.3551
270.4044	-316.8000	-6.3535
270.6043	-316.8000	-6.3554
270.8044	-316.8000	-6.3498
271.0041	-316.8000	-6.3545
271.2043	-316.8000	-6.3562
271.4269	-316.2190	-6.3531
271.6272	-314.8850	-6.3537
271.8277	-313.5520	-6.3525
272.0279	-312.2190	-4.4322
272.2293	-310.8860	-2.4260
272.4288	-309.5530	-1.0652
272.6292	-308.2200	-0.1354
272.8288	-306.8860	0.4954
273.0295	-305.5540	0.8939
273.2296	-304.2210	1.1553
273.4292	-302.8880	1.3158
273.6292	-301.5550	1.4056
273.8292	-300.2220	1.4537
274.0301	-298.8880	1.4723
274.2306	-297.5190	1.4714
274.4300	-296.2200	1.4596
274.6301	-294.8870	1.4383
274.8302	-293.5540	1.4153
275.0304	-292.2210	1.3902
275.2314	-290.8510	1.3666
275.4319	-289.5180	1.3446
275.6329	-288.1850	1.3187
275.8328	-286.8520	1.2988
276.0351	-285.4850	1.2803
276.2349	-284.1860	1.2641
276.4366	-282.8510	1.2472
276.6362	-281.4840	1.2378
276.8373	-280.1510	1.2210
277.0368	-278.8170	1.2134
277.2379	-277.4850	1.1999
277.4391	-276.1520	1.1911
277.6391	-274.8190	1.1849
277.8406	-273.4850	1.1781
278.0399	-272.1520	1.1703
278.2407	-270.8190	1.1707
278.4409	-269.4520	1.1633
278.6422	-268.1190	1.1634
278.8422	-266.8320	1.1643
279.0423	-266.7990	1.1654
279.2435	-266.7990	1.1735
279.4443	-266.7990	1.1626
279.6448	-266.8000	1.1866
279.8458	-266.8000	1.1827
280.0471	-266.8000	1.1873
280.2469	-266.8000	1.1871
280.4473	-266.8000	1.1862
280.6480	-266.8000	1.1867
280.8486	-266.8000	1.1870
281.0480	-266.8000	1.1869
281.2483	-266.8000	1.1860
281.4494	-266.8000	1.1842