File: Tinius-Olsen_Levitation_force/Measurements/20231204_1649GDBCOs2_sl6_3.txt
4/12/2023 4:49:00 pm
Time(s)	Displacement(mm)	Force(N)
0.0000	-266.9280	1.1656
0.1199	-267.3380	1.1728
0.2195	-268.0240	1.1673
0.3194	-268.6730	1.1607
0.4203	-269.3570	1.1559
0.5209	-270.0060	1.1510
0.6207	-270.6900	1.1547
0.7213	-271.3740	1.1507
0.8213	-272.0230	1.1571
0.9213	-272.7070	1.1592
1.0221	-273.3560	1.1564
1.1240	-274.0400	1.1595
1.2233	-274.6890	1.1613
1.3237	-275.3730	1.1605
1.4241	-276.0560	1.1659
1.5269	-276.7400	1.1670
1.6255	-277.3900	1.1655
1.7255	-278.0390	1.1704
1.8251	-278.7220	1.1720
1.9264	-279.4060	1.1808
2.0272	-280.0550	1.1784
2.1272	-280.7390	1.1861
2.2271	-281.4230	1.1904
2.3279	-282.0720	1.1922
2.4276	-282.7210	1.1943
2.5273	-283.4050	1.1998
2.6271	-284.0540	1.2031
2.7280	-284.7380	1.2078
2.8271	-285.3870	1.2095
2.9272	-286.0710	1.2167
3.0276	-286.7200	1.2214
3.1280	-287.4040	1.2258
3.2281	-288.0530	1.2344
3.3291	-288.7400	1.2377
3.4294	-289.4250	1.2428
3.5294	-290.0750	1.2493
3.6294	-290.7590	1.2549
3.7291	-291.4080	1.2589
3.8302	-292.0910	1.2657
3.9303	-292.7410	1.2701
4.0306	-293.4240	1.2723
4.1313	-294.1080	1.2793
4.2314	-294.7580	1.2850
4.3313	-295.4410	1.2856
4.4317	-296.0900	1.2900
4.5313	-296.7740	1.2891
4.6322	-297.4240	1.2890
4.7343	-298.1070	1.2858
4.8343	-298.7910	1.2767
4.9343	-299.4400	1.2750
5.0349	-300.1240	1.2657
5.1348	-300.7730	1.2478
5.2350	-301.4600	1.2319
5.3346	-302.1080	1.2094
5.4361	-302.7930	1.1714
5.5359	-303.4420	1.1289
5.6358	-304.1250	1.0794
5.7361	-304.8090	1.0177
5.8369	-305.4580	0.9400
5.9366	-306.1420	0.8427
6.0376	-306.7910	0.7303
6.1377	-307.4750	0.5852
6.2379	-308.1580	0.4199
6.3379	-308.8080	0.2210
6.4373	-309.4570	-0.0212
6.5373	-310.1410	-0.2971
6.6380	-310.7900	-0.6297
6.7374	-311.4740	-1.0213
6.8389	-312.1580	-1.4796
6.9392	-312.8070	-2.0183
7.0394	-313.4910	-2.6398
7.1402	-314.1400	-3.3526
7.2414	-314.8230	-4.1561
7.3412	-315.5070	-5.0509
7.4416	-316.1570	-6.0906
7.5414	-316.7780	-6.9819
7.6421	-316.8010	-6.9442
7.7414	-316.8010	-6.8851
7.8411	-316.8010	-6.8496
7.9418	-316.8010	-6.8263
8.0424	-316.8000	-6.8063
8.1426	-316.8000	-6.7892
8.2444	-316.8000	-6.7775
8.3434	-316.8000	-6.7635
8.4433	-316.8000	-6.7543
8.5433	-316.8000	-6.7445
8.6432	-316.8000	-6.7377
8.7435	-316.8000	-6.7279
8.8439	-316.8000	-6.7211
8.9441	-316.8000	-6.7150
9.0437	-316.8000	-6.7101
9.1434	-316.8000	-6.7052
9.2433	-316.8000	-6.7000
9.3432	-316.8000	-6.6971
9.4461	-316.8000	-6.6908
9.5451	-316.8000	-6.6845
9.6461	-316.8000	-6.6818
9.7452	-316.8000	-6.6805
9.8457	-316.8000	-6.6741
9.9455	-316.8000	-6.6711
10.0461	-316.8000	-6.6660
10.1463	-316.8000	-6.6645
10.2466	-316.8000	-6.6630
10.3472	-316.8000	-6.6552
10.4473	-316.8000	-6.6538
10.5473	-316.8000	-6.6530
10.6473	-316.8000	-6.6501
10.7475	-316.8000	-6.6495
10.8473	-316.8000	-6.6473
10.9477	-316.8000	-6.6456
11.0477	-316.8000	-6.6395
11.1475	-316.8000	-6.6388
11.2485	-316.8000	-6.6344
11.3487	-316.8000	-6.6339
11.4488	-316.8000	-6.6296
11.5489	-316.8000	-6.6274
11.6483	-316.8000	-6.6298
11.7487	-316.8000	-6.6249
11.8487	-316.8000	-6.6263
11.9485	-316.8000	-6.6211
12.0487	-316.8000	-6.6199
12.1488	-316.8000	-6.6198
12.2484	-316.8000	-6.6185
12.3487	-316.8000	-6.6145
12.4487	-316.8000	-6.6145
12.5488	-316.8000	-6.6104
12.6488	-316.8000	-6.6100
12.7488	-316.8000	-6.6125
12.8494	-316.8000	-6.6084
12.9492	-316.8000	-6.6060
13.0495	-316.8000	-6.6047
13.1494	-316.8000	-6.6045
13.2493	-316.8000	-6.6016
13.3492	-316.8000	-6.6013
13.4492	-316.8000	-6.6014
13.5493	-316.8000	-6.5980
13.6509	-316.8000	-6.5998
13.7505	-316.8000	-6.5947
13.8502	-316.8000	-6.5959
13.9505	-316.8000	-6.5928
14.0508	-316.8000	-6.5935
14.1502	-316.8000	-6.5912
14.2507	-316.8000	-6.5896
14.3504	-316.8000	-6.5902
14.4511	-316.8000	-6.5878
14.5506	-316.8000	-6.5871
14.6503	-316.8000	-6.5837
14.7507	-316.8000	-6.5809
14.8517	-316.8000	-6.5810
14.9528	-316.8000	-6.5792
15.0533	-316.8000	-6.5820
15.1548	-316.8000	-6.5812
15.2547	-316.8000	-6.5792
15.3543	-316.8000	-6.5783
15.4550	-316.8000	-6.5810
15.5543	-316.8000	-6.5789
15.6546	-316.8000	-6.5772
15.7548	-316.8000	-6.5746
15.8550	-316.8000	-6.5736
15.9554	-316.8000	-6.5710
16.0559	-316.8000	-6.5698
16.1560	-316.8000	-6.5705
16.2553	-316.8000	-6.5705
16.3562	-316.8000	-6.5686
16.4553	-316.8000	-6.5643
16.5558	-316.8000	-6.5671
16.6555	-316.8000	-6.5668
16.7558	-316.8000	-6.5648
16.8558	-316.8000	-6.5633
16.9554	-316.8000	-6.5661
17.0554	-316.8000	-6.5644
17.1561	-316.8000	-6.5621
17.2562	-316.8000	-6.5604
17.3555	-316.8000	-6.5607
17.4554	-316.8000	-6.5561
17.5557	-316.8000	-6.5582
17.6558	-316.8000	-6.5524
17.7552	-316.8000	-6.5553
17.8554	-316.8000	-6.5552
17.9557	-316.8000	-6.5533
18.0553	-316.8000	-6.5550
18.1558	-316.8000	-6.5533
18.2560	-316.8000	-6.5519
18.3558	-316.8000	-6.5485
18.4567	-316.8000	-6.5501
18.5571	-316.8000	-6.5488
18.6567	-316.8000	-6.5505
18.7565	-316.8000	-6.5472
18.8571	-316.8000	-6.5501
18.9581	-316.8000	-6.5468
19.0579	-316.8000	-6.5463
19.1573	-316.8000	-6.5476
19.2573	-316.8000	-6.5484
19.3583	-316.8000	-6.5476
19.4584	-316.8000	-6.5469
19.5602	-316.8000	-6.5467
19.6599	-316.8000	-6.5431
19.7602	-316.8000	-6.5427
19.8596	-316.8000	-6.5414
19.9596	-316.8000	-6.5405
20.0596	-316.8000	-6.5414
20.1593	-316.8000	-6.5448
20.2605	-316.8000	-6.5413
20.3603	-316.8000	-6.5398
20.4616	-316.8000	-6.5381
20.5618	-316.8000	-6.5402
20.6615	-316.8000	-6.5423
20.7617	-316.8000	-6.5359
20.8614	-316.8000	-6.5407
20.9621	-316.8000	-6.5348
21.0627	-316.8000	-6.5352
21.1628	-316.8000	-6.5337
21.2637	-316.8000	-6.5335
21.3645	-316.8000	-6.5332
21.4649	-316.8000	-6.5353
21.5651	-316.8000	-6.5294
21.6648	-316.8000	-6.5292
21.7644	-316.8000	-6.5303
21.8652	-316.8000	-6.5309
21.9655	-316.8000	-6.5328
22.0665	-316.8000	-6.5310
22.1664	-316.8000	-6.5287
22.2665	-316.8000	-6.5293
22.3668	-316.8000	-6.5291
22.4670	-316.8000	-6.5266
22.5671	-316.8000	-6.5261
22.6671	-316.8000	-6.5264
22.7670	-316.8000	-6.5212
22.8675	-316.8000	-6.5237
22.9682	-316.8000	-6.5252
23.0680	-316.8000	-6.5243
23.1675	-316.8000	-6.5253
23.2678	-316.8000	-6.5211
23.3682	-316.8000	-6.5250
23.4684	-316.8000	-6.5223
23.5695	-316.8000	-6.5251
23.6698	-316.8000	-6.5202
23.7697	-316.8000	-6.5199
23.8695	-316.8000	-6.5214
23.9696	-316.8000	-6.5204
24.0696	-316.8000	-6.5170
24.1697	-316.8000	-6.5204
24.2694	-316.8000	-6.5178
24.3696	-316.8000	-6.5175
24.4695	-316.8000	-6.5145
24.5696	-316.8000	-6.5157
24.6696	-316.8000	-6.5161
24.7696	-316.8000	-6.5154
24.8710	-316.8000	-6.5110
24.9707	-316.8000	-6.5147
25.0705	-316.8000	-6.5157
25.1714	-316.8000	-6.5163
25.2715	-316.8000	-6.5124
25.3720	-316.8000	-6.5118
25.4718	-316.8000	-6.5117
25.5716	-316.8000	-6.5095
25.6719	-316.8000	-6.5094
25.7714	-316.8000	-6.5081
25.8725	-316.8000	-6.5119
25.9741	-316.8000	-6.5089
26.0736	-316.8000	-6.5080
26.1737	-316.8000	-6.5093
26.2745	-316.8000	-6.5085
26.3744	-316.8000	-6.5083
26.4756	-316.8000	-6.5073
26.5764	-316.8000	-6.5091
26.6765	-316.8000	-6.5111
26.7764	-316.8000	-6.5073
26.8771	-316.8000	-6.5069
26.9763	-316.8000	-6.5063
27.0764	-316.8000	-6.5066
27.1764	-316.8000	-6.5035
27.2780	-316.8000	-6.5035
27.3774	-316.8000	-6.5027
27.4794	-316.8000	-6.5068
27.5791	-316.8000	-6.5041
27.6791	-316.8000	-6.5041
27.7785	-316.8000	-6.5023
27.8786	-316.8000	-6.5017
27.9791	-316.8000	-6.5022
28.0788	-316.8000	-6.5015
28.1803	-316.8000	-6.5020
28.2796	-316.8000	-6.5018
28.3796	-316.8000	-6.5026
28.4794	-316.8000	-6.5002
28.5794	-316.8000	-6.4994
28.6796	-316.8000	-6.5008
28.7794	-316.8000	-6.4968
28.8794	-316.8000	-6.4987
28.9796	-316.8000	-6.4960
29.0796	-316.8000	-6.4984
29.1797	-316.8000	-6.4947
29.2794	-316.8000	-6.4975
29.3796	-316.8000	-6.4958
29.4796	-316.8000	-6.4943
29.5796	-316.8000	-6.4925
29.6795	-316.8000	-6.4941
29.7796	-316.8000	-6.4960
29.8796	-316.8000	-6.4942
29.9796	-316.8000	-6.4942
30.0795	-316.8000	-6.4940
30.1811	-316.8000	-6.4931
30.2808	-316.8000	-6.4915
30.3806	-316.8000	-6.4911
30.4823	-316.8000	-6.4913
30.5817	-316.8000	-6.4933
30.6819	-316.8000	-6.4917
30.7816	-316.8000	-6.4891
30.8815	-316.8000	-6.4933
30.9818	-316.8000	-6.4932
31.0814	-316.8000	-6.4925
31.1817	-316.8000	-6.4910
31.2831	-316.8000	-6.4885
31.3826	-316.8000	-6.4889
31.4833	-316.8000	-6.4905
31.5833	-316.8000	-6.4873
31.6827	-316.8000	-6.4896
31.7837	-316.8000	-6.4865
31.8844	-316.8000	-6.4914
31.9851	-316.8000	-6.4887
32.0844	-316.8000	-6.4902
32.1850	-316.8000	-6.4885
32.2847	-316.8000	-6.4841
32.3853	-316.8000	-6.4870
32.4846	-316.8000	-6.4843
32.5852	-316.8000	-6.4868
32.6844	-316.8000	-6.4851
32.7846	-316.8000	-6.4829
32.8873	-316.8000	-6.4842
32.9870	-316.8000	-6.4815
33.0869	-316.8000	-6.4828
33.1869	-316.8000	-6.4825
33.2865	-316.8000	-6.4825
33.3866	-316.8000	-6.4811
33.4871	-316.8000	-6.4809
33.5864	-316.8000	-6.4811
33.6870	-316.8000	-6.4804
33.7869	-316.8000	-6.4812
33.8870	-316.8000	-6.4823
33.9864	-316.8000	-6.4820
34.0877	-316.8000	-6.4833
34.1873	-316.8000	-6.4786
34.2865	-316.8000	-6.4801
34.3865	-316.8000	-6.4811
34.4873	-316.8000	-6.4820
34.5871	-316.8000	-6.4798
34.6887	-316.8000	-6.4800
34.7875	-316.8000	-6.4814
34.8883	-316.8000	-6.4786
34.9881	-316.8000	-6.4796
35.0874	-316.8000	-6.4824
35.1874	-316.8000	-6.4781
35.2875	-316.8000	-6.4840
35.3883	-316.8000	-6.4784
35.4888	-316.8000	-6.4771
35.5890	-316.8000	-6.4799
35.6887	-316.8000	-6.4799
35.7885	-316.8000	-6.4772
35.8884	-316.8000	-6.4820
35.9891	-316.8000	-6.4790
36.0900	-316.8000	-6.4786
36.1898	-316.8000	-6.4817
36.2894	-316.8000	-6.4775
36.3899	-316.8000	-6.4734
36.4897	-316.8000	-6.4735
36.5911	-316.8000	-6.4743
36.6910	-316.8000	-6.4732
36.7912	-316.8000	-6.4719
36.8923	-316.8000	-6.4733
36.9918	-316.8000	-6.4735
37.0921	-316.8000	-6.4740
37.1922	-316.8000	-6.4736
37.2919	-316.8000	-6.4758
37.3921	-316.8000	-6.4718
37.4931	-316.8000	-6.4724
37.5933	-316.8000	-6.4720
37.6941	-316.8000	-6.4711
37.7943	-316.8000	-6.4712
37.8935	-316.8000	-6.4709
37.9940	-316.8000	-6.4685
38.0941	-316.8000	-6.4695
38.1944	-316.8000	-6.4701
38.2956	-316.8000	-6.4691
38.3960	-316.8000	-6.4700
38.4966	-316.8000	-6.4702
38.5964	-316.8000	-6.4676
38.6969	-316.8000	-6.4673
38.7975	-316.8000	-6.4655
38.8981	-316.8000	-6.4657
38.9974	-316.8000	-6.4675
39.0980	-316.8000	-6.4686
39.1977	-316.8000	-6.4687
39.2992	-316.8000	-6.4650
39.3994	-316.8000	-6.4677
39.5006	-316.8000	-6.4650
39.6015	-316.8000	-6.4663
39.7028	-316.8000	-6.4661
39.8020	-316.8000	-6.4652
39.9017	-316.8000	-6.4681
40.0014	-316.8000	-6.4657
40.1027	-316.8000	-6.4671
40.2032	-316.8000	-6.4634
40.3031	-316.8000	-6.4636
40.4025	-316.8000	-6.4625
40.5026	-316.8000	-6.4628
40.6032	-316.8000	-6.4630
40.7029	-316.8000	-6.4651
40.8046	-316.8000	-6.4624
40.9049	-316.8000	-6.4659
41.0047	-316.8000	-6.4609
41.1054	-316.8000	-6.4611
41.2044	-316.8000	-6.4598
41.3050	-316.8000	-6.4602
41.4055	-316.8000	-6.4614
41.5055	-316.8000	-6.4594
41.6057	-316.8000	-6.4593
41.7066	-316.8000	-6.4584
41.8070	-316.8000	-6.4610
41.9065	-316.8000	-6.4617
42.0075	-316.8000	-6.4588
42.1083	-316.8000	-6.4581
42.2076	-316.8000	-6.4591
42.3085	-316.8000	-6.4582
42.4091	-316.8000	-6.4569
42.5092	-316.8000	-6.4578
42.6086	-316.8000	-6.4592
42.7091	-316.8000	-6.4598
42.8090	-316.8000	-6.4586
42.9093	-316.8000	-6.4579
43.0094	-316.8000	-6.4571
43.1089	-316.8000	-6.4583
43.2092	-316.8000	-6.4571
43.3093	-316.8000	-6.4566
43.4092	-316.8000	-6.4594
43.5085	-316.8000	-6.4567
43.6093	-316.8000	-6.4560
43.7090	-316.8000	-6.4529
43.8092	-316.8000	-6.4556
43.9094	-316.8000	-6.4580
44.0089	-316.8000	-6.4585
44.1093	-316.8000	-6.4582
44.2090	-316.8000	-6.4576
44.3091	-316.8000	-6.4573
44.4100	-316.8000	-6.4566
44.5096	-316.8000	-6.4548
44.6098	-316.8000	-6.4567
44.7098	-316.8000	-6.4550
44.8109	-316.8000	-6.4569
44.9112	-316.8000	-6.4547
45.0119	-316.8000	-6.4540
45.1116	-316.8000	-6.4546
45.2132	-316.8000	-6.4551
45.3132	-316.8000	-6.4536
45.4127	-316.8000	-6.4561
45.5126	-316.8000	-6.4565
45.6131	-316.8000	-6.4550
45.7133	-316.8000	-6.4525
45.8127	-316.8000	-6.4548
45.9139	-316.8000	-6.4552
46.0138	-316.8000	-6.4511
46.1153	-316.8000	-6.4523
46.2145	-316.8000	-6.4492
46.3152	-316.8000	-6.4491
46.4164	-316.8000	-6.4506
46.5172	-316.8000	-6.4499
46.6166	-316.8000	-6.4497
46.7169	-316.8000	-6.4493
46.8165	-316.8000	-6.4511
46.9166	-316.8000	-6.4486
47.0181	-316.8000	-6.4487
47.1180	-316.8000	-6.4483
47.2184	-316.8000	-6.4517
47.3175	-316.8000	-6.4500
47.4175	-316.8000	-6.4485
47.5175	-316.8000	-6.4501
47.6177	-316.8000	-6.4472
47.7178	-316.8000	-6.4466
47.8180	-316.8000	-6.4443
47.9182	-316.8000	-6.4462
48.0186	-316.8000	-6.4442
48.1188	-316.8000	-6.4494
48.2195	-316.8000	-6.4481
48.3196	-316.8000	-6.4464
48.4198	-316.8000	-6.4474
48.5198	-316.8000	-6.4461
48.6199	-316.8000	-6.4464
48.7196	-316.8000	-6.4524
48.8198	-316.8000	-6.4530
48.9196	-316.8000	-6.4509
49.0202	-316.8000	-6.4481
49.1195	-316.8000	-6.4455
49.2198	-316.8000	-6.4439
49.3199	-316.8000	-6.4461
49.4195	-316.8000	-6.4453
49.5198	-316.8000	-6.4431
49.6199	-316.8000	-6.4466
49.7199	-316.8000	-6.4488
49.8212	-316.8000	-6.4435
49.9210	-316.8000	-6.4478
50.0214	-316.8000	-6.4446
50.1214	-316.8000	-6.4440
50.2207	-316.8000	-6.4440
50.3219	-316.8000	-6.4398
50.4222	-316.8000	-6.4393
50.5219	-316.8000	-6.4434
50.6218	-316.8000	-6.4410
50.7220	-316.8000	-6.4430
50.8216	-316.8000	-6.4428
50.9215	-316.8000	-6.4404
51.0220	-316.8000	-6.4389
51.1223	-316.8000	-6.4425
51.2222	-316.8000	-6.4422
51.3216	-316.8000	-6.4409
51.4215	-316.8000	-6.4400
51.5218	-316.8000	-6.4407
51.6235	-316.8000	-6.4395
51.7232	-316.8000	-6.4372
51.8229	-316.8000	-6.4400
51.9226	-316.8000	-6.4392
52.0233	-316.8000	-6.4426
52.1236	-316.8000	-6.4388
52.2235	-316.8000	-6.4397
52.3239	-316.8000	-6.4385
52.4246	-316.8000	-6.4399
52.5255	-316.8000	-6.4347
52.6246	-316.8000	-6.4387
52.7246	-316.8000	-6.4411
52.8250	-316.8000	-6.4412
52.9251	-316.8000	-6.4385
53.0250	-316.8000	-6.4414
53.1246	-316.8000	-6.4345
53.2250	-316.8000	-6.4393
53.3251	-316.8000	-6.4345
53.4265	-316.8000	-6.4341
53.5275	-316.8000	-6.4365
53.6272	-316.8000	-6.4356
53.7271	-316.8000	-6.4360
53.8280	-316.8000	-6.4367
53.9280	-316.8000	-6.4360
54.0283	-316.8000	-6.4362
54.1277	-316.8000	-6.4358
54.2278	-316.8000	-6.4361
54.3276	-316.8000	-6.4348
54.4284	-316.8000	-6.4365
54.5277	-316.8000	-6.4334
54.6284	-316.8000	-6.4354
54.7282	-316.8000	-6.4349
54.8283	-316.8000	-6.4349
54.9278	-316.8000	-6.4316
55.0283	-316.8000	-6.4329
55.1280	-316.8000	-6.4348
55.2284	-316.8000	-6.4341
55.3286	-316.8000	-6.4356
55.4296	-316.8000	-6.4317
55.5297	-316.8000	-6.4324
55.6296	-316.8000	-6.4314
55.7296	-316.8000	-6.4321
55.8299	-316.8000	-6.4331
55.9299	-316.8000	-6.4302
56.0297	-316.8000	-6.4351
56.1299	-316.8000	-6.4346
56.2299	-316.8000	-6.4333
56.3299	-316.8000	-6.4325
56.4298	-316.8000	-6.4306
56.5299	-316.8000	-6.4330
56.6297	-316.8000	-6.4331
56.7297	-316.8000	-6.4310
56.8300	-316.8000	-6.4318
56.9297	-316.8000	-6.4292
57.0300	-316.8000	-6.4296
57.1308	-316.8000	-6.4312
57.2316	-316.8000	-6.4301
57.3322	-316.8000	-6.4312
57.4324	-316.8000	-6.4283
57.5321	-316.8000	-6.4299
57.6323	-316.8000	-6.4292
57.7320	-316.8000	-6.4302
57.8336	-316.8000	-6.4299
57.9340	-316.8000	-6.4319
58.0345	-316.8000	-6.4326
58.1351	-316.8000	-6.4324
58.2346	-316.8000	-6.4304
58.3356	-316.8000	-6.4275
58.4358	-316.8000	-6.4330
58.5368	-316.8000	-6.4274
58.6372	-316.8000	-6.4303
58.7373	-316.8000	-6.4273
58.8376	-316.8000	-6.4314
58.9383	-316.8000	-6.4303
59.0384	-316.8000	-6.4307
59.1396	-316.8000	-6.4279
59.2397	-316.8000	-6.4305
59.3399	-316.8000	-6.4279
59.4397	-316.8000	-6.4301
59.5397	-316.8000	-6.4261
59.6413	-316.8000	-6.4295
59.7410	-316.8000	-6.4280
59.8407	-316.8000	-6.4264
59.9415	-316.8000	-6.4268
60.0417	-316.8000	-6.4279
60.1421	-316.8000	-6.4279
60.2424	-316.8000	-6.4276
60.3427	-316.8000	-6.4245
60.4426	-316.8000	-6.4252
60.5435	-316.8000	-6.4272
60.6428	-316.8000	-6.4276
60.7443	-316.8000	-6.4236
60.8445	-316.8000	-6.4288
60.9441	-316.8000	-6.4259
61.0449	-316.8000	-6.4237
61.1450	-316.8000	-6.4236
61.2455	-316.8000	-6.4215
61.3451	-316.8000	-6.4235
61.4449	-316.8000	-6.4247
61.5452	-316.8000	-6.4235
61.6447	-316.8000	-6.4235
61.7464	-316.8000	-6.4220
61.8463	-316.8000	-6.4230
61.9463	-316.8000	-6.4234
62.0463	-316.8000	-6.4229
62.1461	-316.8000	-6.4217
62.2462	-316.8000	-6.4214
62.3459	-316.8000	-6.4232
62.4460	-316.8000	-6.4209
62.5469	-316.8000	-6.4222
62.6482	-316.8000	-6.4228
62.7478	-316.8000	-6.4219
62.8488	-316.8000	-6.4220
62.9495	-316.8000	-6.4235
63.0493	-316.8000	-6.4232
63.1495	-316.8000	-6.4205
63.2487	-316.8000	-6.4227
63.3488	-316.8000	-6.4234
63.4496	-316.8000	-6.4222
63.5495	-316.8000	-6.4209
63.6505	-316.8000	-6.4183
63.7499	-316.8000	-6.4212
63.8499	-316.8000	-6.4239
63.9496	-316.8000	-6.4188
64.0498	-316.8000	-6.4188
64.1505	-316.8000	-6.4198
64.2499	-316.8000	-6.4187
64.3498	-316.8000	-6.4191
64.4500	-316.8000	-6.4196
64.5500	-316.8000	-6.4182
64.6497	-316.8000	-6.4176
64.7497	-316.8000	-6.4188
64.8499	-316.8000	-6.4173
64.9508	-316.8000	-6.4183
65.0517	-316.8000	-6.4173
65.1524	-316.8000	-6.4163
65.2517	-316.8000	-6.4199
65.3521	-316.8000	-6.4193
65.4534	-316.8000	-6.4182
65.5536	-316.8000	-6.4201
65.6527	-316.8000	-6.4194
65.7527	-316.8000	-6.4183
65.8531	-316.8000	-6.4154
65.9545	-316.8000	-6.4181
66.0546	-316.8000	-6.4162
66.1537	-316.8000	-6.4149
66.2540	-316.8000	-6.4151
66.3556	-316.8000	-6.4142
66.4557	-316.8000	-6.4144
66.5556	-316.8000	-6.4146
66.6559	-316.8000	-6.4132
66.7563	-316.8000	-6.4138
66.8557	-316.8000	-6.4145
66.9559	-316.8000	-6.4105
67.0558	-316.8000	-6.4152
67.1577	-316.8000	-6.4141
67.2576	-316.8000	-6.4143
67.3577	-316.8000	-6.4142
67.4578	-316.8000	-6.4124
67.5586	-316.8000	-6.4130
67.6583	-316.8000	-6.4112
67.7582	-316.8000	-6.4127
67.8581	-316.8000	-6.4117
67.9585	-316.8000	-6.4119
68.0582	-316.8000	-6.4072
68.1584	-316.8000	-6.4094
68.2596	-316.8000	-6.4087
68.3593	-316.8000	-6.4120
68.4605	-316.8000	-6.4096
68.5614	-316.8000	-6.4079
68.6607	-316.8000	-6.4133
68.7618	-316.8000	-6.4127
68.8617	-316.8000	-6.4105
68.9618	-316.8000	-6.4110
69.0624	-316.8000	-6.4135
69.1623	-316.8000	-6.4124
69.2617	-316.8000	-6.4117
69.3636	-316.8000	-6.4114
69.4636	-316.8000	-6.4107
69.5634	-316.8000	-6.4117
69.6629	-316.8000	-6.4103
69.7631	-316.8000	-6.4110
69.8630	-316.8000	-6.4097
69.9631	-316.8000	-6.4112
70.0632	-316.8000	-6.4118
70.1636	-316.8000	-6.4093
70.2645	-316.8000	-6.4109
70.3648	-316.8000	-6.4106
70.4657	-316.8000	-6.4130
70.5677	-316.8000	-6.4116
70.6678	-316.8000	-6.4082
70.7689	-316.8000	-6.4103
70.8689	-316.8000	-6.4082
70.9698	-316.8000	-6.4091
71.0700	-316.8000	-6.4080
71.1705	-316.8000	-6.4074
71.2700	-316.8000	-6.4088
71.3701	-316.8000	-6.4048
71.4706	-316.8000	-6.4063
71.5701	-316.8000	-6.4064
71.6700	-316.8000	-6.4127
71.7698	-316.8000	-6.4043
71.8702	-316.8000	-6.4062
71.9706	-316.8000	-6.4060
72.0701	-316.8000	-6.4057
72.1699	-316.8000	-6.4057
72.2700	-316.8000	-6.4070
72.3700	-316.8000	-6.4070
72.4716	-316.8000	-6.4050
72.5713	-316.8000	-6.4066
72.6717	-316.8000	-6.4048
72.7716	-316.8000	-6.4024
72.8713	-316.8000	-6.4031
72.9710	-316.8000	-6.4021
73.0713	-316.8000	-6.4078
73.1712	-316.8000	-6.4037
73.2709	-316.8000	-6.4034
73.3707	-316.8000	-6.4066
73.4725	-316.8000	-6.4063
73.5718	-316.8000	-6.4069
73.6737	-316.8000	-6.4065
73.7735	-316.8000	-6.4046
73.8728	-316.8000	-6.4081
73.9730	-316.8000	-6.4075
74.0736	-316.8000	-6.4039
74.1736	-316.8000	-6.4052
74.2728	-316.8000	-6.4038
74.3735	-316.8000	-6.3993
74.4736	-316.8000	-6.4025
74.5735	-316.8000	-6.4077
74.6728	-316.8000	-6.4055
74.7760	-316.8000	-6.4055
74.8754	-316.8000	-6.4058
74.9749	-316.8000	-6.4026
75.0748	-316.8000	-6.4050
75.1749	-316.8000	-6.4051
75.2752	-316.8000	-6.4046
75.3760	-316.8000	-6.4037
75.4758	-316.8000	-6.4036
75.5771	-316.8000	-6.4030
75.6777	-316.8000	-6.4032
75.7792	-316.8000	-6.4015
75.8793	-316.8000	-6.3999
75.9796	-316.8000	-6.4027
76.0791	-316.8000	-6.4038
76.1790	-316.8000	-6.4040
76.2793	-316.8000	-6.4018
76.3797	-316.8000	-6.4043
76.4794	-316.8000	-6.3996
76.5792	-316.8000	-6.4030
76.6793	-316.8000	-6.4022
76.7792	-316.8000	-6.3991
76.8796	-316.8000	-6.4011
76.9794	-316.8000	-6.3994
77.0795	-316.8000	-6.4025
77.1795	-316.8000	-6.4052
77.2788	-316.8000	-6.4022
77.3788	-316.8000	-6.4016
77.4795	-316.8000	-6.4035
77.5791	-316.8000	-6.3984
77.6789	-316.8000	-6.4048
77.7790	-316.8000	-6.4011
77.8792	-316.8000	-6.4011
77.9792	-316.8000	-6.3981
78.0788	-316.8000	-6.3971
78.1795	-316.8000	-6.3974
78.2805	-316.8000	-6.3983
78.3799	-316.8000	-6.4009
78.4801	-316.8000	-6.4008
78.5801	-316.8000	-6.3980
78.6818	-316.8000	-6.3984
78.7821	-316.8000	-6.3972
78.8820	-316.8000	-6.3961
78.9826	-316.8000	-6.3986
79.0818	-316.8000	-6.4000
79.1821	-316.8000	-6.3978
79.2818	-316.8000	-6.3983
79.3830	-316.8000	-6.3983
79.4822	-316.8000	-6.3990
79.5825	-316.8000	-6.3981
79.6819	-316.8000	-6.3954
79.7818	-316.8000	-6.3972
79.8821	-316.8000	-6.3977
79.9821	-316.8000	-6.3975
80.0829	-316.8000	-6.3953
80.1845	-316.8000	-6.3950
80.2844	-316.8000	-6.3964
80.3840	-316.8000	-6.3944
80.4855	-316.8000	-6.3967
80.5852	-316.8000	-6.3976
80.6852	-316.8000	-6.3943
80.7848	-316.8000	-6.3899
80.8859	-316.8000	-6.3927
80.9869	-316.8000	-6.3898
81.0869	-316.8000	-6.3938
81.1872	-316.8000	-6.3913
81.2869	-316.8000	-6.3921
81.3878	-316.8000	-6.3944
81.4879	-316.8000	-6.3915
81.5890	-316.8000	-6.3919
81.6892	-316.8000	-6.3941
81.7889	-316.8000	-6.3957
81.8889	-316.8000	-6.3994
81.9917	-316.8000	-6.3962
82.0918	-316.8000	-6.3913
82.1918	-316.8000	-6.3943
82.2919	-316.8000	-6.3945
82.3925	-316.8000	-6.3934
82.4925	-316.8000	-6.3932
82.5937	-316.8000	-6.3932
82.6946	-316.8000	-6.3907
82.7940	-316.8000	-6.3922
82.8945	-316.8000	-6.3916
82.9946	-316.8000	-6.3927
83.0947	-316.8000	-6.3937
83.1939	-316.8000	-6.3889
83.2946	-316.8000	-6.3908
83.3940	-316.8000	-6.3915
83.4958	-316.8000	-6.3909
83.5949	-316.8000	-6.3923
83.6953	-316.8000	-6.3920
83.7955	-316.8000	-6.3906
83.8955	-316.8000	-6.3901
83.9949	-316.8000	-6.3863
84.0948	-316.8000	-6.3924
84.1963	-316.8000	-6.3911
84.2960	-316.8000	-6.3901
84.3969	-316.8000	-6.3874
84.4973	-316.8000	-6.3901
84.5984	-316.8000	-6.3922
84.6994	-316.8000	-6.3892
84.8003	-316.8000	-6.3918
84.9004	-316.8000	-6.3900
85.0013	-316.8000	-6.3900
85.1023	-316.8000	-6.3861
85.2025	-316.8000	-6.3894
85.3031	-316.8000	-6.3955
85.4041	-316.8000	-6.3887
85.5045	-316.8000	-6.3903
85.6046	-316.8000	-6.3880
85.7043	-316.8000	-6.3889
85.8051	-316.8000	-6.3892
85.9049	-316.8000	-6.3898
86.0049	-316.8000	-6.3898
86.1050	-316.8000	-6.3889
86.2054	-316.8000	-6.3883
86.3051	-316.8000	-6.3880
86.4061	-316.8000	-6.3902
86.5059	-316.8000	-6.3892
86.6064	-316.8000	-6.3907
86.7065	-316.8000	-6.3874
86.8060	-316.8000	-6.3877
86.9066	-316.8000	-6.3889
87.0062	-316.8000	-6.3883
87.1063	-316.8000	-6.3901
87.2062	-316.8000	-6.3911
87.3061	-316.8000	-6.3889
87.4063	-316.8000	-6.3903
87.5073	-316.8000	-6.3884
87.6079	-316.8000	-6.3886
87.7080	-316.8000	-6.3890
87.8080	-316.8000	-6.3888
87.9094	-316.8000	-6.3898
88.0099	-316.8000	-6.3880
88.1101	-316.8000	-6.3877
88.2112	-316.8000	-6.3847
88.3129	-316.8000	-6.3857
88.4134	-316.8000	-6.3882
88.5129	-316.8000	-6.3869
88.6129	-316.8000	-6.3872
88.7131	-316.8000	-6.3871
88.8144	-316.8000	-6.3871
88.9141	-316.8000	-6.3862
89.0147	-316.8000	-6.3875
89.1139	-316.8000	-6.3883
89.2141	-316.8000	-6.3869
89.3139	-316.8000	-6.3877
89.4146	-316.8000	-6.3867
89.5139	-316.8000	-6.3867
89.6149	-316.8000	-6.3856
89.7140	-316.8000	-6.3862
89.8140	-316.8000	-6.3895
89.9147	-316.8000	-6.3868
90.0141	-316.8000	-6.3880
90.1139	-316.8000	-6.3888
90.2148	-316.8000	-6.3874
90.3144	-316.8000	-6.3847
90.4144	-316.8000	-6.3839
90.5157	-316.8000	-6.3849
90.6157	-316.8000	-6.3849
90.7151	-316.8000	-6.3857
90.8166	-316.8000	-6.3866
90.9168	-316.8000	-6.3850
91.0165	-316.8000	-6.3840
91.1170	-316.8000	-6.3807
91.2170	-316.8000	-6.3833
91.3178	-316.8000	-6.3834
91.4175	-316.8000	-6.3839
91.5176	-316.8000	-6.3812
91.6175	-316.8000	-6.3815
91.7175	-316.8000	-6.3838
91.8175	-316.8000	-6.3836
91.9178	-316.8000	-6.3834
92.0180	-316.8000	-6.3836
92.1188	-316.8000	-6.3819
92.2186	-316.8000	-6.3837
92.3184	-316.8000	-6.3837
92.4191	-316.8000	-6.3835
92.5200	-316.8000	-6.3831
92.6209	-316.8000	-6.3867
92.7216	-316.8000	-6.3800
92.8223	-316.8000	-6.3783
92.9223	-316.8000	-6.3788
93.0226	-316.8000	-6.3789
93.1233	-316.8000	-6.3808
93.2237	-316.8000	-6.3821
93.3245	-316.8000	-6.3820
93.4242	-316.8000	-6.3806
93.5248	-316.8000	-6.3813
93.6250	-316.8000	-6.3831
93.7262	-316.8000	-6.3790
93.8261	-316.8000	-6.3810
93.9266	-316.8000	-6.3792
94.0267	-316.8000	-6.3801
94.1264	-316.8000	-6.3812
94.2278	-316.8000	-6.3823
94.3288	-316.8000	-6.3791
94.4279	-316.8000	-6.3814
94.5287	-316.8000	-6.3826
94.6289	-316.8000	-6.3832
94.7280	-316.8000	-6.3801
94.8282	-316.8000	-6.3836
94.9287	-316.8000	-6.3798
95.0300	-316.8000	-6.3824
95.1302	-316.8000	-6.3784
95.2299	-316.8000	-6.3825
95.3308	-316.8000	-6.3820
95.4302	-316.8000	-6.3803
95.5302	-316.8000	-6.3809
95.6300	-316.8000	-6.3826
95.7300	-316.8000	-6.3817
95.8311	-316.8000	-6.3806
95.9320	-316.8000	-6.3820
96.0339	-316.8000	-6.3797
96.1331	-316.8000	-6.3761
96.2345	-316.8000	-6.3777
96.3354	-316.8000	-6.3801
96.4351	-316.8000	-6.3779
96.5361	-316.8000	-6.3788
96.6371	-316.8000	-6.3772
96.7370	-316.8000	-6.3786
96.8372	-316.8000	-6.3790
96.9375	-316.8000	-6.3783
97.0377	-316.8000	-6.3774
97.1370	-316.8000	-6.3807
97.2384	-316.8000	-6.3784
97.3380	-316.8000	-6.3752
97.4381	-316.8000	-6.3779
97.5379	-316.8000	-6.3781
97.6399	-316.8000	-6.3773
97.7396	-316.8000	-6.3778
97.8393	-316.8000	-6.3759
97.9390	-316.8000	-6.3780
98.0397	-316.8000	-6.3777
98.1394	-316.8000	-6.3813
98.2391	-316.8000	-6.3775
98.3391	-316.8000	-6.3777
98.4397	-316.8000	-6.3784
98.5390	-316.8000	-6.3780
98.6391	-316.8000	-6.3763
98.7400	-316.8000	-6.3743
98.8403	-316.8000	-6.3744
98.9403	-316.8000	-6.3727
99.0418	-316.8000	-6.3739
99.1424	-316.8000	-6.3770
99.2427	-316.8000	-6.3736
99.3433	-316.8000	-6.3737
99.4430	-316.8000	-6.3751
99.5438	-316.6420	-6.3742
99.6645	-316.2260	-6.3753
99.7649	-315.5760	-6.2650
99.8649	-314.8920	-5.0630
99.9648	-314.2430	-3.8092
100.0641	-313.5590	-2.8220
100.1640	-312.9100	-2.0015
100.2649	-312.2260	-1.3298
100.3646	-311.5770	-0.7694
100.4657	-310.8930	-0.3158
100.5650	-310.2440	0.0639
100.6659	-309.5600	0.3712
100.7651	-308.9110	0.6228
100.8651	-308.2270	0.8187
100.9650	-307.5770	0.9793
101.0651	-306.8940	1.1112
101.1652	-306.2440	1.2121
101.2667	-305.5610	1.2906
101.3679	-304.8770	1.3476
101.4671	-304.2280	1.3989
101.5670	-303.5440	1.4268
101.6675	-302.8950	1.4507
101.7680	-302.2110	1.4617
101.8685	-301.5280	1.4720
101.9684	-300.8780	1.4770
102.0682	-300.1950	1.4798
102.1688	-299.5450	1.4752
102.2687	-298.8620	1.4688
102.3681	-298.2120	1.4582
102.4693	-297.5290	1.4465
102.5692	-296.8790	1.4351
102.6697	-296.1950	1.4260
102.7691	-295.5460	1.4194
102.8699	-294.8630	1.4015
102.9696	-294.2130	1.3876
103.0691	-293.5300	1.3745
103.1691	-292.8800	1.3636
103.2695	-292.1940	1.3498
103.3696	-291.5110	1.3396
103.4700	-290.8610	1.3299
103.5697	-290.2110	1.3155
103.6697	-289.5280	1.3090
103.7707	-288.8790	1.2956
103.8702	-288.1950	1.2863
103.9715	-287.5110	1.2802
104.0716	-286.8620	1.2721
104.1720	-286.1790	1.2609
104.2724	-285.5290	1.2548
104.3721	-284.8460	1.2481
104.4724	-284.1620	1.2409
104.5723	-283.5130	1.2346
104.6729	-282.8630	1.2258
104.7727	-282.1790	1.2202
104.8720	-281.5300	1.2135
104.9724	-280.8470	1.2091
105.0724	-280.1970	1.2044
105.1735	-279.5130	1.1976
105.2735	-278.8300	1.2006
105.3736	-278.1800	1.1913
105.4741	-277.4970	1.1917
105.5742	-276.8130	1.1853
105.6741	-276.1640	1.1830
105.7743	-275.5150	1.1796
105.8744	-274.8310	1.1760
105.9741	-274.1470	1.1707
106.0751	-273.4980	1.1667
106.1750	-272.8490	1.1683
106.2760	-272.1620	1.1640
106.3755	-271.4790	1.1675
106.4762	-270.8290	1.1685
106.5768	-270.1460	1.1682
106.6763	-269.4970	1.1694
106.7760	-268.8130	1.1762
106.8779	-268.1630	1.1760
106.9776	-267.4800	1.1891
107.0792	-266.8370	1.1923
107.1798	-266.7990	1.1991
107.2794	-266.7990	1.1934
107.3810	-266.7990	1.2109
107.4821	-266.7990	1.2077
107.5826	-266.7990	1.2060
107.6831	-266.7990	1.2077
107.7842	-266.8000	1.2098
107.8853	-266.8000	1.2080
107.9865	-266.8000	1.2101
108.0878	-266.8000	1.2105
108.1873	-266.8000	1.2112
108.2880	-266.8000	1.2085
108.3874	-266.8000	1.2055
108.4879	-266.8000	1.2070
108.5885	-266.8000	1.2085
108.6894	-266.8000	1.2073
108.7910	-266.8000	1.2045
108.8904	-266.8000	1.2071
108.9903	-266.8000	1.2032
109.0901	-266.8000	1.2025
109.1910	-266.8000	1.2066
109.2901	-266.8000	1.2086
109.3903	-266.8000	1.2119
109.4909	-266.8000	1.2080