File: Tinius-Olsen_Levitation_force/Measurements/20231204_1527YBCOs1_sl9_2.txt
4/12/2023 3:27:49 pm
Time(s)	Displacement(mm)	Force(N)
0.0000	-266.2680	1.0975
0.2398	-266.2680	1.0970
0.4406	-266.2680	1.0994
0.6406	-266.2680	1.0999
0.8431	-266.2680	1.0964
1.0430	-266.2680	1.0994
1.2426	-266.2680	1.0987
1.4434	-266.2680	1.0990
1.6444	-266.2680	1.1022
1.8462	-266.2680	1.0999
2.0467	-266.2680	1.1000
2.2468	-266.2680	1.0967
2.4463	-266.2680	1.0975
2.6473	-266.2680	1.1012
2.8476	-266.2680	1.0987
3.0480	-266.2680	1.0980
3.2478	-266.2680	1.1019
3.4488	-266.2680	1.1018
3.6488	-266.2680	1.0989
3.8487	-266.2680	1.1009
4.0487	-266.2680	1.0979
4.2484	-266.2680	1.0961
4.4498	-266.2680	1.0981
4.6507	-266.2680	1.1005
4.8516	-266.2680	1.1013
5.0529	-266.2680	1.1028
5.2526	-266.1100	1.1124
5.4738	-266.0000	1.1095
5.6737	-266.0000	1.1032
5.8739	-266.0000	1.1015
6.0739	-266.0000	1.1034
6.2737	-266.0000	1.1015
6.4736	-266.0000	1.1046
6.6739	-266.0000	1.0990
6.8736	-266.0000	1.1014
7.0740	-266.0000	1.1038
7.2740	-266.0000	1.1052
7.4737	-266.0000	1.1058
7.6738	-266.0000	1.1058
7.8751	-266.0000	1.1077
8.0762	-266.0000	1.1038
8.2766	-266.0000	1.0981
8.4766	-266.0000	1.0998
8.6769	-266.0000	1.0998
8.8764	-266.0000	1.1026
9.0782	-266.0000	1.1011
9.2787	-266.0000	1.1019
9.4793	-266.0000	1.1062
9.6799	-266.0000	1.1050
9.8793	-266.0000	1.1030
10.0796	-266.0000	1.1048
10.2809	-266.0000	1.1023
10.4816	-266.0000	1.1006
10.6815	-266.0000	1.1050
10.8816	-266.0000	1.1009
11.0815	-266.1520	1.0908
11.3044	-267.2170	1.0977
11.5050	-268.5850	1.0904
11.7067	-269.9110	1.0971
11.9064	-270.0000	1.0856
12.1064	-270.0000	1.0839
12.3079	-270.0000	1.0822
12.5090	-270.0000	1.0837
12.7089	-270.0000	1.0860
12.9091	-270.0000	1.0873
13.1089	-270.0000	1.0898
13.3088	-270.0000	1.0863
13.5088	-270.0000	1.0868
13.7089	-270.0000	1.0851
13.9087	-270.0000	1.0851
14.1088	-270.0000	1.0863
14.3092	-270.0000	1.0865
14.5088	-270.0000	1.0869
14.7089	-270.0000	1.0856
14.9096	-270.0000	1.0869
15.1100	-270.0000	1.0868
15.3099	-270.0000	1.0824
15.5094	-270.0000	1.0866
15.7102	-270.0000	1.0872
15.9104	-270.0000	1.0869
16.1108	-270.0000	1.0887
16.3105	-270.0000	1.0867
16.5109	-270.0000	1.0856
16.7112	-270.0000	1.0845
16.9109	-270.0000	1.0832
17.1122	-270.0000	1.0853
17.3117	-270.0000	1.0833
17.5117	-270.0000	1.0869
17.7128	-270.0000	1.0877
17.9143	-270.0000	1.0854
18.1140	-270.0000	1.0850
18.3146	-270.0000	1.0865
18.5151	-270.0000	1.0839
18.7149	-270.0000	1.0863
18.9146	-270.0000	1.0873
19.1155	-270.0000	1.0840
19.3172	-270.0000	1.0867
19.5182	-270.0000	1.0898
19.7185	-270.0000	1.0897
19.9209	-270.0000	1.0902
20.1216	-270.0000	1.0860
20.3215	-270.0000	1.0841
20.5228	-270.0000	1.0842
20.7242	-270.0000	1.0869
20.9238	-270.0000	1.0826
21.1241	-270.0000	1.0832
21.3238	-270.0000	1.0842
21.5253	-270.0000	1.0848
21.7258	-270.0000	1.0865
21.9256	-270.0000	1.0895
22.1270	-270.0000	1.0866
22.3266	-270.0000	1.0859
22.5275	-270.0000	1.0832
22.7286	-270.0000	1.0862
22.9288	-270.0000	1.0881
23.1288	-270.0000	1.0837
23.3303	-270.0000	1.0872
23.5295	-270.0000	1.0839
23.7304	-270.0000	1.0856
23.9317	-270.0000	1.0846
24.1316	-270.0000	1.0811
24.3342	-270.0000	1.0824
24.5340	-270.0000	1.0827
24.7341	-270.0000	1.0841
24.9338	-270.0000	1.0840
25.1342	-270.0000	1.0843
25.3338	-270.0000	1.0816
25.5353	-270.0000	1.0841
25.7348	-270.0000	1.0862
25.9350	-270.0000	1.0832
26.1568	-270.5800	1.0626
26.3581	-271.9140	1.0795
26.5588	-273.2480	1.0748
26.7585	-274.5810	1.0735
26.9603	-275.9140	1.0677
27.1595	-277.2470	1.0667
27.3603	-278.5800	1.0613
27.5596	-279.9470	1.0571
27.7606	-281.2460	1.0518
27.9612	-282.5790	1.0419
28.1615	-283.9460	1.0369
28.3618	-285.2790	1.0258
28.5618	-286.6120	1.0158
28.7617	-287.9450	1.0030
28.9617	-289.2780	0.9929
29.1617	-290.6110	0.9763
29.3629	-291.9450	0.9582
29.5644	-293.2770	0.9411
29.7657	-294.6100	0.9183
29.9669	-295.9800	0.8936
30.1675	-297.3130	0.8652
30.3678	-298.6460	0.8284
30.5675	-299.9780	0.7896
30.7679	-301.3120	0.7405
30.9677	-302.6450	0.6850
31.1708	-303.9780	0.6228
31.3713	-305.3130	0.5435
31.5717	-306.6810	0.4578
31.7740	-308.0130	0.3616
31.9741	-309.3470	0.2415
32.1740	-310.6790	0.1087
32.3740	-312.0130	-0.0475
32.5760	-313.3450	-0.2289
32.7755	-314.6780	-0.4397
32.9766	-315.6400	-1.0063
33.1772	-315.6410	-1.1336
33.3787	-315.6400	-1.0271
33.5788	-315.6400	-0.9721
33.7794	-315.6400	-0.9329
33.9805	-315.6400	-0.9070
34.1806	-315.6400	-0.8875
34.3820	-315.6400	-0.8707
34.5819	-315.6400	-0.8599
34.7830	-315.6400	-0.8477
34.9832	-315.6400	-0.8398
35.1839	-315.6400	-0.8271
35.3842	-315.6400	-0.8183
35.5856	-315.6400	-0.8133
35.7870	-315.6400	-0.8052
35.9875	-315.6400	-0.7996
36.1881	-315.6400	-0.7896
36.3895	-315.6400	-0.7864
36.5894	-315.6400	-0.7809
36.7904	-315.6400	-0.7792
36.9895	-315.6400	-0.7743
37.1912	-315.6400	-0.7709
37.3912	-315.6400	-0.7625
37.5919	-315.6400	-0.7605
37.7918	-315.6400	-0.7565
37.9919	-315.6400	-0.7504
38.1924	-315.6400	-0.7496
38.3919	-315.6400	-0.7463
38.5920	-315.6400	-0.7436
38.7942	-315.6400	-0.7396
38.9940	-315.6400	-0.7375
39.1965	-315.6400	-0.7335
39.3971	-315.6400	-0.7295
39.5980	-315.6400	-0.7280
39.7985	-315.6400	-0.7249
39.9993	-315.6400	-0.7217
40.1996	-315.6400	-0.7207
40.4022	-315.6400	-0.7159
40.6017	-315.6400	-0.7172
40.8032	-315.6400	-0.7118
41.0030	-315.6400	-0.7105
41.2037	-315.6400	-0.7077
41.4040	-315.6400	-0.7066
41.6036	-315.6400	-0.6998
41.8054	-315.6400	-0.6982
42.0047	-315.6400	-0.6975
42.2046	-315.6400	-0.6960
42.4062	-315.6400	-0.6952
42.6075	-315.6400	-0.6958
42.8071	-315.6400	-0.6932
43.0078	-315.6400	-0.6917
43.2090	-315.6400	-0.6870
43.4096	-315.6400	-0.6880
43.6106	-315.6400	-0.6856
43.8110	-315.6400	-0.6829
44.0111	-315.6400	-0.6820
44.2116	-315.6400	-0.6795
44.4119	-315.6400	-0.6765
44.6119	-315.6400	-0.6776
44.8120	-315.6400	-0.6748
45.0119	-315.6400	-0.6729
45.2119	-315.6400	-0.6721
45.4126	-315.6400	-0.6682
45.6144	-315.6400	-0.6690
45.8144	-315.6400	-0.6675
46.0140	-315.6400	-0.6648
46.2140	-315.6400	-0.6630
46.4136	-315.6400	-0.6615
46.6140	-315.6400	-0.6629
46.8139	-315.6400	-0.6593
47.0152	-315.6400	-0.6588
47.2161	-315.6400	-0.6579
47.4172	-315.6400	-0.6555
47.6184	-315.6400	-0.6565
47.8182	-315.6400	-0.6550
48.0179	-315.6400	-0.6551
48.2186	-315.6400	-0.6509
48.4201	-315.6400	-0.6510
48.6211	-315.6400	-0.6497
48.8209	-315.6400	-0.6457
49.0223	-315.6400	-0.6458
49.2232	-315.6400	-0.6453
49.4231	-315.6400	-0.6441
49.6238	-315.6400	-0.6445
49.8239	-315.6400	-0.6431
50.0242	-315.6400	-0.6396
50.2244	-315.6400	-0.6412
50.4244	-315.6400	-0.6385
50.6244	-315.6400	-0.6380
50.8244	-315.6400	-0.6377
51.0243	-315.6400	-0.6380
51.2243	-315.6400	-0.6335
51.4243	-315.6400	-0.6328
51.6242	-315.6400	-0.6321
51.8244	-315.6400	-0.6309
52.0251	-315.6400	-0.6300
52.2261	-315.6400	-0.6307
52.4257	-315.6400	-0.6292
52.6283	-315.6400	-0.6271
52.8283	-315.6400	-0.6254
53.0295	-315.6400	-0.6263
53.2297	-315.6400	-0.6240
53.4311	-315.6400	-0.6234
53.6311	-315.6400	-0.6226
53.8311	-315.6400	-0.6222
54.0321	-315.6400	-0.6215
54.2320	-315.6400	-0.6200
54.4323	-315.6400	-0.6217
54.6320	-315.6400	-0.6185
54.8331	-315.6400	-0.6178
55.0327	-315.6400	-0.6176
55.2337	-315.6400	-0.6141
55.4341	-315.6400	-0.6140
55.6351	-315.6400	-0.6146
55.8350	-315.6400	-0.6148
56.0352	-315.6400	-0.6150
56.2360	-315.6400	-0.6124
56.4369	-315.6400	-0.6095
56.6382	-315.6400	-0.6102
56.8392	-315.6390	-0.6119
57.0403	-315.6390	-0.6079
57.2398	-315.6400	-0.6081
57.4402	-315.6400	-0.6092
57.6403	-315.6400	-0.6047
57.8399	-315.6400	-0.6081
58.0398	-315.6400	-0.6049
58.2400	-315.6400	-0.6069
58.4406	-315.6400	-0.6058
58.6406	-315.6400	-0.6026
58.8399	-315.6400	-0.6020
59.0402	-315.6400	-0.6052
59.2413	-315.6400	-0.6002
59.4412	-315.6400	-0.5989
59.6421	-315.6400	-0.5973
59.8423	-315.6400	-0.6012
60.0421	-315.6400	-0.6012
60.2429	-315.6400	-0.5991
60.4432	-315.6400	-0.5975
60.6444	-315.6400	-0.5967
60.8449	-315.6400	-0.5974
61.0457	-315.6400	-0.5957
61.2473	-315.6400	-0.5959
61.4473	-315.6400	-0.5946
61.6471	-315.6400	-0.5912
61.8474	-315.6400	-0.5950
62.0481	-315.6400	-0.5945
62.2491	-315.6400	-0.5926
62.4513	-315.6400	-0.5917
62.6522	-315.6400	-0.5915
62.8518	-315.6400	-0.5910
63.0536	-315.6400	-0.5933
63.2538	-315.6400	-0.5891
63.4544	-315.6400	-0.5910
63.6544	-315.6400	-0.5909
63.8545	-315.6400	-0.5875
64.0543	-315.6400	-0.5879
64.2545	-315.6400	-0.5886
64.4540	-315.6400	-0.5863
64.6542	-315.6400	-0.5867
64.8541	-315.6400	-0.5836
65.0543	-315.6400	-0.5827
65.2545	-315.6400	-0.5842
65.4545	-315.6400	-0.5870
65.6546	-315.6400	-0.5866
65.8546	-315.6400	-0.5830
66.0541	-315.6400	-0.5827
66.2539	-315.6400	-0.5829
66.4545	-315.6400	-0.5807
66.6552	-315.6400	-0.5809
66.8568	-315.6400	-0.5801
67.0582	-315.6400	-0.5796
67.2589	-315.6400	-0.5790
67.4602	-315.6400	-0.5817
67.6603	-315.6400	-0.5758
67.8616	-315.6400	-0.5793
68.0619	-315.6400	-0.5774
68.2623	-315.6400	-0.5761
68.4638	-315.6400	-0.5761
68.6634	-315.6400	-0.5743
68.8645	-315.6400	-0.5752
69.0638	-315.6400	-0.5734
69.2639	-315.6400	-0.5734
69.4643	-315.6400	-0.5764
69.6641	-315.6400	-0.5747
69.8643	-315.6400	-0.5699
70.0639	-315.6400	-0.5720
70.2642	-315.6400	-0.5716
70.4653	-315.6400	-0.5711
70.6653	-315.6400	-0.5707
70.8656	-315.6400	-0.5693
71.0656	-315.6400	-0.5689
71.2657	-315.6400	-0.5687
71.4656	-315.6400	-0.5671
71.6656	-315.6400	-0.5679
71.8666	-315.6400	-0.5672
72.0663	-315.6400	-0.5693
72.2667	-315.6400	-0.5672
72.4677	-315.6400	-0.5673
72.6675	-315.6400	-0.5681
72.8684	-315.6400	-0.5682
73.0684	-315.6400	-0.5682
73.2689	-315.6400	-0.5626
73.4695	-315.6400	-0.5636
73.6692	-315.6400	-0.5637
73.8692	-315.6400	-0.5614
74.0691	-315.6400	-0.5612
74.2694	-315.6400	-0.5608
74.4704	-315.6400	-0.5624
74.6713	-315.6400	-0.5607
74.8717	-315.6400	-0.5607
75.0724	-315.6400	-0.5610
75.2722	-315.6400	-0.5633
75.4745	-315.6400	-0.5593
75.6764	-315.6400	-0.5585
75.8768	-315.6400	-0.5604
76.0759	-315.6400	-0.5558
76.2761	-315.6400	-0.5591
76.4766	-315.6400	-0.5588
76.6780	-315.6400	-0.5599
76.8780	-315.6400	-0.5577
77.0779	-315.6400	-0.5586
77.2789	-315.6400	-0.5575
77.4806	-315.6400	-0.5574
77.6805	-315.6400	-0.5581
77.8816	-315.6400	-0.5563
78.0817	-315.6400	-0.5559
78.2810	-315.6400	-0.5555
78.4816	-315.6400	-0.5547
78.6813	-315.6400	-0.5529
78.8818	-315.6400	-0.5556
79.0816	-315.6400	-0.5568
79.2827	-315.6400	-0.5531
79.4828	-315.6400	-0.5520
79.6836	-315.6400	-0.5527
79.8845	-315.6400	-0.5541
80.0845	-315.6400	-0.5529
80.2847	-315.6400	-0.5513
80.4846	-315.6400	-0.5520
80.6859	-315.6400	-0.5506
80.8885	-315.6400	-0.5501
81.0892	-315.6400	-0.5499
81.2894	-315.6400	-0.5472
81.4901	-315.6400	-0.5496
81.6907	-315.6400	-0.5507
81.8915	-315.6400	-0.5490
82.0931	-315.6400	-0.5456
82.2934	-315.6400	-0.5434
82.4935	-315.6400	-0.5451
82.6944	-315.6400	-0.5464
82.8946	-315.6400	-0.5447
83.0943	-315.6400	-0.5462
83.2954	-315.6400	-0.5447
83.4958	-315.6400	-0.5483
83.6954	-315.6400	-0.5493
83.8961	-315.6400	-0.5472
84.0975	-315.6400	-0.5450
84.2975	-315.6400	-0.5454
84.4970	-315.6400	-0.5456
84.6978	-315.6400	-0.5440
84.8988	-315.6400	-0.5432
85.0985	-315.6400	-0.5417
85.2985	-315.6400	-0.5413
85.4988	-315.6400	-0.5426
85.6988	-315.6400	-0.5441
85.8987	-315.6400	-0.5408
86.0985	-315.6400	-0.5402
86.2985	-315.6400	-0.5398
86.5006	-315.6400	-0.5402
86.7005	-315.6400	-0.5396
86.9008	-315.6400	-0.5378
87.1008	-315.6400	-0.5392
87.3026	-315.6400	-0.5393
87.5035	-315.6400	-0.5387
87.7053	-315.6400	-0.5370
87.9075	-315.6400	-0.5389
88.1079	-315.6400	-0.5370
88.3078	-315.6400	-0.5401
88.5079	-315.6400	-0.5390
88.7084	-315.6400	-0.5375
88.9093	-315.6400	-0.5355
89.1099	-315.6400	-0.5362
89.3103	-315.6400	-0.5358
89.5108	-315.6400	-0.5372
89.7106	-315.6400	-0.5362
89.9106	-315.6400	-0.5349
90.1108	-315.6400	-0.5351
90.3103	-315.6400	-0.5354
90.5110	-315.6400	-0.5364
90.7117	-315.6400	-0.5328
90.9117	-315.6400	-0.5327
91.1113	-315.6400	-0.5337
91.3115	-315.6400	-0.5297
91.5124	-315.6400	-0.5339
91.7124	-315.6400	-0.5318
91.9124	-315.6400	-0.5308
92.1124	-315.6400	-0.5320
92.3124	-315.6400	-0.5288
92.5124	-315.6400	-0.5289
92.7124	-315.6400	-0.5306
92.9140	-315.6400	-0.5302
93.1145	-315.6400	-0.5309
93.3142	-315.6400	-0.5271
93.5166	-315.6400	-0.5302
93.7179	-315.6400	-0.5293
93.9175	-315.6400	-0.5283
94.1184	-315.6400	-0.5318
94.3187	-315.6400	-0.5289
94.5194	-315.6400	-0.5286
94.7199	-315.6400	-0.5277
94.9205	-315.6400	-0.5304
95.1219	-315.6400	-0.5285
95.3221	-315.6400	-0.5266
95.5237	-315.6400	-0.5294
95.7234	-315.6400	-0.5261
95.9240	-315.6400	-0.5237
96.1243	-315.6400	-0.5236
96.3246	-315.6400	-0.5239
96.5251	-315.6400	-0.5254
96.7259	-315.6400	-0.5263
96.9253	-315.6400	-0.5242
97.1269	-315.6400	-0.5257
97.3283	-315.6400	-0.5239
97.5284	-315.6400	-0.5276
97.7291	-315.6400	-0.5267
97.9295	-315.6400	-0.5276
98.1296	-315.6400	-0.5264
98.3300	-315.6400	-0.5256
98.5298	-315.6400	-0.5264
98.7293	-315.6400	-0.5236
98.9295	-315.6400	-0.5203
99.1292	-315.6400	-0.5220
99.3300	-315.6400	-0.5226
99.5298	-315.6400	-0.5239
99.7292	-315.6400	-0.5209
99.9308	-315.6400	-0.5249
100.1303	-315.6400	-0.5217
100.3305	-315.6400	-0.5224
100.5311	-315.6400	-0.5246
100.7328	-315.6400	-0.5215
100.9325	-315.6400	-0.5221
101.1325	-315.6400	-0.5195
101.3345	-315.6400	-0.5214
101.5356	-315.6400	-0.5219
101.7360	-315.6400	-0.5194
101.9365	-315.6400	-0.5189
102.1366	-315.6400	-0.5215
102.3372	-315.6400	-0.5195
102.5382	-315.6400	-0.5178
102.7400	-315.6400	-0.5199
102.9404	-315.6400	-0.5193
103.1406	-315.6400	-0.5169
103.3416	-315.6400	-0.5174
103.5425	-315.6400	-0.5181
103.7443	-315.6400	-0.5177
103.9458	-315.6400	-0.5208
104.1467	-315.6400	-0.5170
104.3466	-315.6400	-0.5167
104.5477	-315.6400	-0.5171
104.7475	-315.6400	-0.5184
104.9480	-315.6400	-0.5149
105.1474	-315.6400	-0.5179
105.3477	-315.6400	-0.5176
105.5487	-315.6400	-0.5140
105.7499	-315.6400	-0.5161
105.9511	-315.6400	-0.5156
106.1513	-315.6400	-0.5162
106.3523	-315.6400	-0.5158
106.5525	-315.6400	-0.5138
106.7524	-315.6400	-0.5145
106.9527	-315.6400	-0.5151
107.1522	-315.6400	-0.5133
107.3525	-315.6400	-0.5128
107.5526	-315.6400	-0.5127
107.7537	-315.6400	-0.5148
107.9535	-315.6400	-0.5121
108.1549	-315.6400	-0.5127
108.3548	-315.6400	-0.5099
108.5549	-315.6400	-0.5115
108.7550	-315.6400	-0.5136
108.9547	-315.6400	-0.5092
109.1555	-315.6400	-0.5103
109.3564	-315.6400	-0.5083
109.5567	-315.6400	-0.5123
109.7576	-315.6400	-0.5119
109.9583	-315.6400	-0.5115
110.1587	-315.6400	-0.5104
110.3593	-315.6400	-0.5101
110.5609	-315.6400	-0.5087
110.7619	-315.6400	-0.5110
110.9617	-315.6400	-0.5095
111.1617	-315.6400	-0.5102
111.3625	-315.6400	-0.5093
111.5635	-315.6400	-0.5119
111.7636	-315.6400	-0.5095
111.9635	-315.6400	-0.5094
112.1642	-315.6400	-0.5072
112.3645	-315.6400	-0.5079
112.5650	-315.6400	-0.5079
112.7655	-315.6400	-0.5054
112.9670	-315.6400	-0.5074
113.1674	-315.6400	-0.5082
113.3679	-315.6400	-0.5044
113.5681	-315.6400	-0.5045
113.7684	-315.6400	-0.5047
113.9701	-315.6400	-0.5079
114.1703	-315.6400	-0.5059
114.3711	-315.6400	-0.5059
114.5704	-315.6400	-0.5062
114.7721	-315.6400	-0.5074
114.9730	-315.6400	-0.5049
115.1726	-315.6400	-0.5062
115.3738	-315.6400	-0.5020
115.5749	-315.6400	-0.5059
115.7745	-315.6400	-0.5059
115.9744	-315.6400	-0.5045
116.1756	-315.6400	-0.5036
116.3767	-315.6400	-0.5030
116.5765	-315.6400	-0.5016
116.7767	-315.6400	-0.5022
116.9767	-315.6400	-0.5041
117.1764	-315.6400	-0.5011
117.3777	-315.6400	-0.5029
117.5779	-315.6400	-0.5053
117.7779	-315.6400	-0.5032
117.9783	-315.6400	-0.5018
118.1794	-315.6400	-0.5020
118.3819	-315.6400	-0.5006
118.5817	-315.6400	-0.5050
118.7842	-315.6400	-0.5023
118.9847	-315.6400	-0.5027
119.1868	-315.6400	-0.5011
119.3877	-315.6400	-0.5022
119.5883	-315.6400	-0.5002
119.7888	-315.6400	-0.5002
119.9885	-315.6400	-0.5033
120.1897	-315.6400	-0.4993
120.3914	-315.6400	-0.5009
120.5920	-315.6400	-0.5013
120.7923	-315.6400	-0.4977
120.9947	-315.6400	-0.4994
121.1959	-315.6400	-0.4980
121.3956	-315.6400	-0.4990
121.5955	-315.6400	-0.4977
121.7955	-315.6400	-0.4963
121.9958	-315.6400	-0.4964
122.1961	-315.6400	-0.4956
122.3959	-315.6400	-0.4964
122.5962	-315.6400	-0.5002
122.7963	-315.6400	-0.4977
122.9962	-315.6400	-0.4952
123.1962	-315.6400	-0.4970
123.3971	-315.6400	-0.4955
123.5970	-315.6400	-0.4941
123.7973	-315.6400	-0.4972
123.9981	-315.6400	-0.4950
124.1977	-315.6400	-0.4970
124.3974	-315.6400	-0.4959
124.5988	-315.6400	-0.4957
124.7998	-315.6400	-0.4932
125.0009	-315.6400	-0.4931
125.2004	-315.6400	-0.4940
125.4017	-315.6400	-0.4931
125.6036	-315.6400	-0.4933
125.8036	-315.6400	-0.4986
126.0048	-315.6400	-0.4953
126.2061	-315.6400	-0.4965
126.4080	-315.6400	-0.4929
126.6082	-315.6400	-0.4942
126.8075	-315.6400	-0.4953
127.0076	-315.6400	-0.4946
127.2077	-315.6400	-0.4934
127.4085	-315.6400	-0.4921
127.6084	-315.6400	-0.4954
127.8088	-315.6400	-0.4933
128.0094	-315.6400	-0.4927
128.2102	-315.6400	-0.4945
128.4101	-315.6400	-0.4906
128.6111	-315.6400	-0.4938
128.8111	-315.6400	-0.4920
129.0108	-315.6400	-0.4924
129.2110	-315.6400	-0.4919
129.4110	-315.6400	-0.4933
129.6117	-315.6400	-0.4922
129.8122	-315.6400	-0.4904
130.0117	-315.6400	-0.4901
130.2120	-315.6400	-0.4899
130.4128	-315.6400	-0.4915
130.6132	-315.6400	-0.4913
130.8137	-315.6400	-0.4918
131.0147	-315.6400	-0.4906
131.2146	-315.6400	-0.4914
131.4146	-315.6400	-0.4879
131.6149	-315.6400	-0.4898
131.8161	-315.6400	-0.4871
132.0161	-315.6400	-0.4878
132.2158	-315.6400	-0.4875
132.4182	-315.6400	-0.4860
132.6181	-315.6400	-0.4862
132.8189	-315.6400	-0.4879
133.0187	-315.6400	-0.4850
133.2191	-315.6400	-0.4853
133.4193	-315.6400	-0.4860
133.6200	-315.6400	-0.4845
133.8198	-315.6400	-0.4859
134.0204	-315.6400	-0.4857
134.2209	-315.6400	-0.4868
134.4206	-315.6400	-0.4851
134.6219	-315.6400	-0.4858
134.8224	-315.6400	-0.4870
135.0221	-315.6400	-0.4851
135.2221	-315.6400	-0.4872
135.4220	-315.6400	-0.4853
135.6223	-315.6400	-0.4830
135.8221	-315.6400	-0.4842
136.0233	-315.6400	-0.4846
136.2228	-315.6400	-0.4861
136.4234	-315.6400	-0.4861
136.6235	-315.6400	-0.4830
136.8242	-315.6400	-0.4839
137.0251	-315.6400	-0.4832
137.2248	-315.6400	-0.4834
137.4249	-315.6400	-0.4824
137.6254	-315.6400	-0.4856
137.8260	-315.6400	-0.4845
138.0273	-315.6400	-0.4831
138.2273	-315.6400	-0.4831
138.4281	-315.6400	-0.4850
138.6276	-315.6400	-0.4817
138.8276	-315.6400	-0.4836
139.0290	-315.6400	-0.4804
139.2289	-315.6400	-0.4798
139.4293	-315.6400	-0.4784
139.6309	-315.6400	-0.4828
139.8320	-315.6400	-0.4820
140.0330	-315.6400	-0.4813
140.2341	-315.6400	-0.4829
140.4338	-315.6400	-0.4821
140.6343	-315.6400	-0.4793
140.8339	-315.6400	-0.4808
141.0336	-315.6400	-0.4811
141.2350	-315.6400	-0.4806
141.4350	-315.6400	-0.4826
141.6353	-315.6400	-0.4819
141.8350	-315.6400	-0.4811
142.0352	-315.6400	-0.4796
142.2352	-315.6400	-0.4800
142.4347	-315.6400	-0.4806
142.6355	-315.6400	-0.4848
142.8368	-315.6400	-0.4807
143.0372	-315.6400	-0.4832
143.2370	-315.6400	-0.4806
143.4373	-315.6400	-0.4814
143.6374	-315.6400	-0.4837
143.8369	-315.6400	-0.4808
144.0374	-315.6400	-0.4794
144.2373	-315.6400	-0.4814
144.4383	-315.6400	-0.4815
144.6390	-315.6400	-0.4809
144.8395	-315.6400	-0.4811
145.0390	-315.6400	-0.4804
145.2388	-315.6400	-0.4786
145.4399	-315.6400	-0.4794
145.6416	-315.6400	-0.4779
145.8428	-315.6400	-0.4797
146.0427	-315.6400	-0.4789
146.2441	-315.6400	-0.4813
146.4438	-315.6400	-0.4765
146.6441	-315.6400	-0.4774
146.8448	-315.6400	-0.4756
147.0452	-315.6400	-0.4778
147.2449	-315.6400	-0.4765
147.4457	-315.6400	-0.4768
147.6485	-315.6400	-0.4758
147.8491	-315.6400	-0.4755
148.0493	-315.6400	-0.4766
148.2496	-315.6400	-0.4751
148.4513	-315.6400	-0.4725
148.6512	-315.6400	-0.4747
148.8514	-315.6400	-0.4755
149.0523	-315.6400	-0.4759
149.2521	-315.6400	-0.4759
149.4530	-315.6400	-0.4741
149.6528	-315.6400	-0.4747
149.8545	-315.6400	-0.4758
150.0546	-315.6400	-0.4713
150.2552	-315.6400	-0.4743
150.4554	-315.6400	-0.4734
150.6552	-315.6400	-0.4739
150.8548	-315.6400	-0.4730
151.0554	-315.6400	-0.4768
151.2552	-315.6400	-0.4736
151.4553	-315.6400	-0.4757
151.6554	-315.6400	-0.4726
151.8560	-315.6400	-0.4743
152.0575	-315.6400	-0.4724
152.2570	-315.6390	-0.4734
152.4576	-315.6400	-0.4720
152.6585	-315.6400	-0.4727
152.8583	-315.6400	-0.4755
153.0605	-315.6400	-0.4761
153.2600	-315.6400	-0.4733
153.4602	-315.6400	-0.4697
153.6601	-315.6400	-0.4718
153.8606	-315.6400	-0.4742
154.0613	-315.6400	-0.4709
154.2607	-315.6400	-0.4702
154.4610	-315.6400	-0.4728
154.6617	-315.6400	-0.4702
154.8618	-315.6400	-0.4725
155.0617	-315.6400	-0.4700
155.2622	-315.6400	-0.4691
155.4630	-315.6400	-0.4703
155.6630	-315.6400	-0.4728
155.8651	-315.6400	-0.4716
156.0654	-315.6400	-0.4748
156.2657	-315.6400	-0.4721
156.4671	-315.6400	-0.4707
156.6676	-315.6400	-0.4710
156.8678	-315.6400	-0.4697
157.0679	-315.6400	-0.4695
157.2682	-315.6400	-0.4705
157.4693	-315.6400	-0.4706
157.6690	-315.6400	-0.4729
157.8704	-315.6400	-0.4692
158.0711	-315.6400	-0.4695
158.2720	-315.6400	-0.4712
158.4720	-315.6400	-0.4716
158.6730	-315.6400	-0.4696
158.8730	-315.6400	-0.4695
159.0730	-315.6400	-0.4672
159.2730	-315.6400	-0.4665
159.4744	-315.6400	-0.4706
159.6744	-315.6400	-0.4714
159.8756	-315.6400	-0.4707
160.0751	-315.6400	-0.4690
160.2750	-315.6400	-0.4699
160.4750	-315.6400	-0.4690
160.6771	-315.6400	-0.4684
160.8781	-315.6400	-0.4683
161.0777	-315.6400	-0.4671
161.2791	-315.6400	-0.4688
161.4799	-315.6400	-0.4699
161.6810	-315.6400	-0.4695
161.8816	-315.6400	-0.4692
162.0823	-315.6400	-0.4686
162.2833	-315.6400	-0.4689
162.4830	-315.6400	-0.4691
162.6829	-315.6400	-0.4685
162.8829	-315.6400	-0.4679
163.0829	-315.6400	-0.4681
163.2831	-315.6400	-0.4663
163.4831	-315.6400	-0.4657
163.6844	-315.6400	-0.4687
163.8838	-315.6400	-0.4675
164.0839	-315.6400	-0.4677
164.2846	-315.6400	-0.4629
164.4857	-315.6400	-0.4655
164.6858	-315.6400	-0.4649
164.8868	-315.6400	-0.4646
165.0873	-315.6400	-0.4641
165.2889	-315.6400	-0.4679
165.4890	-315.6400	-0.4658
165.6895	-315.6400	-0.4622
165.8890	-315.6400	-0.4651
166.0894	-315.6400	-0.4647
166.2900	-315.6400	-0.4651
166.4907	-315.6400	-0.4646
166.6916	-315.6400	-0.4639
166.8919	-315.6400	-0.4640
167.0928	-315.6400	-0.4641
167.2942	-315.6400	-0.4649
167.4948	-315.6400	-0.4629
167.6951	-315.6400	-0.4653
167.8955	-315.6400	-0.4593
168.0954	-315.6400	-0.4629
168.2962	-315.6400	-0.4643
168.4971	-315.6400	-0.4606
168.6977	-315.6400	-0.4629
168.8983	-315.6400	-0.4622
169.0978	-315.6400	-0.4628
169.2984	-315.6400	-0.4625
169.4990	-315.6400	-0.4613
169.6997	-315.6400	-0.4611
169.8996	-315.6400	-0.4618
170.1004	-315.6400	-0.4610
170.3014	-315.6400	-0.4616
170.5008	-315.6400	-0.4619
170.7037	-315.6400	-0.4590
170.9032	-315.6400	-0.4604
171.1031	-315.6400	-0.4603
171.3052	-315.6400	-0.4620
171.5055	-315.6400	-0.4594
171.7054	-315.6400	-0.4583
171.9064	-315.6400	-0.4587
172.1069	-315.6400	-0.4617
172.3068	-315.6400	-0.4610
172.5076	-315.6400	-0.4593
172.7074	-315.6400	-0.4610
172.9076	-315.6400	-0.4625
173.1076	-315.6400	-0.4597
173.3078	-315.6400	-0.4604
173.5084	-315.6400	-0.4570
173.7093	-315.6400	-0.4588
173.9095	-315.6400	-0.4589
174.1092	-315.6400	-0.4594
174.3093	-315.6400	-0.4586
174.5093	-315.6400	-0.4574
174.7093	-315.6400	-0.4591
174.9091	-315.6400	-0.4544
175.1093	-315.6400	-0.4533
175.3117	-315.6400	-0.4540
175.5115	-315.6400	-0.4567
175.7113	-315.6400	-0.4559
175.9127	-315.6400	-0.4557
176.1127	-315.6400	-0.4514
176.3123	-315.6400	-0.4560
176.5128	-315.6400	-0.4548
176.7129	-315.6400	-0.4563
176.9132	-315.6400	-0.4527
177.1132	-315.6400	-0.4523
177.3158	-315.6400	-0.4538
177.5155	-315.6400	-0.4535
177.7156	-315.6400	-0.4523
177.9152	-315.6400	-0.4567
178.1157	-315.6400	-0.4539
178.3155	-315.6400	-0.4572
178.5165	-315.6400	-0.4574
178.7167	-315.6400	-0.4575
178.9162	-315.6400	-0.4541
179.1177	-315.6400	-0.4547
179.3176	-315.6400	-0.4525
179.5183	-315.6400	-0.4528
179.7195	-315.6400	-0.4499
179.9202	-315.6400	-0.4536
180.1202	-315.6400	-0.4508
180.3212	-315.6400	-0.4523
180.5212	-315.6400	-0.4516
180.7215	-315.6400	-0.4507
180.9210	-315.6400	-0.4506
181.1232	-315.6400	-0.4563
181.3231	-315.6400	-0.4543
181.5233	-315.6400	-0.4532
181.7242	-315.6400	-0.4536
181.9253	-315.6400	-0.4540
182.1251	-315.6400	-0.4501
182.3267	-315.6400	-0.4537
182.5270	-315.6400	-0.4534
182.7278	-315.6400	-0.4522
182.9271	-315.6400	-0.4506
183.1274	-315.6400	-0.4477
183.3276	-315.6400	-0.4519
183.5274	-315.6400	-0.4500
183.7279	-315.6400	-0.4487
183.9273	-315.6400	-0.4497
184.1277	-315.6400	-0.4484
184.3272	-315.6400	-0.4486
184.5277	-315.6400	-0.4489
184.7277	-315.6400	-0.4488
184.9275	-315.6400	-0.4517
185.1278	-315.6400	-0.4486
185.3289	-315.6400	-0.4518
185.5295	-315.6400	-0.4471
185.7305	-315.6400	-0.4475
185.9306	-315.6400	-0.4489
186.1322	-315.6400	-0.4504
186.3321	-315.6400	-0.4490
186.5322	-315.6400	-0.4512
186.7323	-315.6400	-0.4505
186.9332	-315.6400	-0.4496
187.1335	-315.6400	-0.4469
187.3348	-315.6400	-0.4489
187.5354	-315.6400	-0.4509
187.7356	-315.6400	-0.4476
187.9354	-315.6400	-0.4500
188.1356	-315.6400	-0.4485
188.3365	-315.6400	-0.4473
188.5360	-315.6400	-0.4435
188.7366	-315.6400	-0.4484
188.9370	-315.6400	-0.4470
189.1370	-315.6400	-0.4524
189.3371	-315.6400	-0.4473
189.5386	-315.6400	-0.4465
189.7383	-315.6400	-0.4453
189.9392	-315.6400	-0.4464
190.1399	-315.6400	-0.4452
190.3409	-315.6400	-0.4474
190.5404	-315.6400	-0.4464
190.7417	-315.6400	-0.4477
190.9415	-315.6400	-0.4464
191.1422	-315.6400	-0.4471
191.3420	-315.6400	-0.4457
191.5426	-315.6400	-0.4446
191.7429	-315.6400	-0.4436
191.9424	-315.6400	-0.4487
192.1427	-315.6400	-0.4483
192.3431	-315.6400	-0.4435
192.5442	-315.6400	-0.4447
192.7448	-315.6400	-0.4444
192.9461	-315.6400	-0.4460
193.1477	-315.6400	-0.4446
193.3471	-315.6400	-0.4470
193.5482	-315.6400	-0.4467
193.7495	-315.6400	-0.4467
193.9514	-315.6400	-0.4420
194.1515	-315.6400	-0.4440
194.3514	-315.6400	-0.4422
194.5510	-315.6400	-0.4430
194.7528	-315.6400	-0.4453
194.9526	-315.6400	-0.4446
195.1532	-315.6400	-0.4440
195.3533	-315.6400	-0.4442
195.5531	-315.6400	-0.4441
195.7550	-315.6400	-0.4441
195.9558	-315.6400	-0.4439
196.1551	-315.6400	-0.4434
196.3556	-315.6400	-0.4444
196.5556	-315.6400	-0.4437
196.7558	-315.6400	-0.4439
196.9556	-315.6400	-0.4441
197.1554	-315.6400	-0.4423
197.3555	-315.6400	-0.4403
197.5554	-315.6400	-0.4430
197.7552	-315.6400	-0.4424
197.9558	-315.6400	-0.4454
198.1556	-315.6400	-0.4464
198.3552	-315.6400	-0.4513
198.5556	-315.6400	-0.4514
198.7564	-315.6400	-0.4496
198.9589	-315.6400	-0.4497
199.1587	-315.6400	-0.4486
199.3591	-315.6400	-0.4474
199.5604	-315.6400	-0.4478
199.7608	-315.6400	-0.4492
199.9610	-315.6400	-0.4465
200.1606	-315.6400	-0.4471
200.3602	-315.6400	-0.4452
200.5606	-315.3520	-0.4431
200.7606	-314.9510	-0.4439
200.9629	-314.5510	0.1070
201.1632	-314.1510	0.8976
201.3634	-313.7510	1.2630
201.5643	-313.3410	1.4967
201.7644	-312.9410	1.6307
201.9649	-312.5410	1.7122
202.1646	-312.1410	1.7629
202.3649	-311.7410	1.8005
202.5644	-311.3410	1.8212
202.7644	-310.9410	1.8382
202.9643	-310.5420	1.8468
203.1658	-310.1420	1.8501
203.3655	-309.7420	1.8480
203.5653	-309.3420	1.8418
203.7656	-308.9420	1.8337
203.9656	-308.5420	1.8197
204.1655	-308.1420	1.8057
204.3666	-307.7420	1.7915
204.5681	-307.3430	1.7762
204.7691	-306.9420	1.7575
204.9687	-306.5320	1.7395
205.1692	-306.1310	1.7194
205.3707	-305.7320	1.7012
205.5709	-305.3320	1.6805
205.7723	-304.9310	1.6619
205.9738	-304.5310	1.6425
206.1750	-304.1210	1.6231
206.3745	-303.7210	1.6023
206.5744	-303.3210	1.5847
206.7750	-302.9210	1.5642
206.9756	-302.5210	1.5469
207.1754	-302.1210	1.5275
207.3758	-301.7220	1.5152
207.5757	-301.3220	1.4959
207.7754	-300.9220	1.4784
207.9762	-300.5210	1.4632
208.1766	-300.1210	1.4512
208.3773	-299.7220	1.4338
208.5775	-299.3220	1.4203
208.7789	-298.9110	1.4080
208.9786	-298.5110	1.3937
209.1787	-298.1220	1.3796
209.3782	-297.7220	1.3672
209.5782	-297.3120	1.3570
209.7800	-296.9120	1.3493
209.9808	-296.5120	1.3366
210.1803	-296.1120	1.3261
210.3820	-295.7120	1.3178
210.5830	-295.3120	1.3072
210.7834	-294.9130	1.2972
210.9841	-294.5120	1.2888
211.1835	-294.1120	1.2806
211.3836	-293.7120	1.2761
211.5835	-293.3110	1.2686
211.7844	-292.9020	1.2585
211.9869	-292.5020	1.2544
212.1883	-292.1010	1.2481
212.3893	-291.6910	1.2425
212.5919	-291.5790	1.2341
212.7916	-291.5790	1.2303
212.9915	-291.5800	1.2197
213.1929	-291.5800	1.2221
213.3926	-291.5800	1.2207
213.5927	-291.5800	1.2200
213.7938	-291.5800	1.2177
213.9935	-291.5800	1.2197
214.1934	-291.5800	1.2182
214.3935	-291.5800	1.2165
214.5947	-291.5800	1.2152
214.7943	-291.5800	1.2167
214.9946	-291.5800	1.2160
215.1955	-291.5800	1.2160
215.3965	-291.5800	1.2130
215.5986	-291.5800	1.2158
215.7990	-291.5800	1.2124
215.9986	-291.5800	1.2152
216.1987	-291.5800	1.2135
216.3995	-291.5800	1.2158
216.6004	-291.5800	1.2147
216.8006	-291.5800	1.2191
217.0011	-291.5800	1.2126
217.2018	-291.5800	1.2143
217.4017	-291.5800	1.2088
217.6036	-291.5800	1.2144
217.8034	-291.5800	1.2114
218.0052	-291.5800	1.2113
218.2054	-291.5800	1.2079
218.4078	-291.5800	1.2106
218.6086	-291.5800	1.2122
218.8102	-291.5800	1.2135
219.0094	-291.5800	1.2136
219.2112	-291.5800	1.2158
219.4121	-291.5800	1.2106
219.6113	-291.5800	1.2144
219.8116	-291.4580	1.2102
220.0123	-291.0560	1.2114
220.2134	-290.6550	1.2096
220.4155	-290.2550	1.2140
220.6153	-289.8550	1.2099
220.8164	-289.4450	1.2104
221.0178	-289.0450	1.2027
221.2178	-288.6450	1.2007
221.4176	-288.2450	1.1982
221.6192	-287.8450	1.1950
221.8198	-287.4450	1.1898
222.0200	-287.0450	1.1880
222.2212	-286.6350	1.1857
222.4206	-286.2460	1.1833
222.6205	-285.8450	1.1796
222.8220	-285.4350	1.1767
223.0215	-285.0350	1.1717
223.2224	-284.6350	1.1701
223.4233	-284.2350	1.1699
223.6236	-283.8350	1.1678
223.8246	-283.4350	1.1638
224.0261	-283.0350	1.1615
224.2290	-282.6250	1.1576
224.4286	-282.2250	1.1576
224.6287	-281.8250	1.1535
224.8287	-281.4240	1.1536
225.0298	-281.0240	1.1501
225.2306	-280.6140	1.1476
225.4307	-280.2250	1.1459
225.6320	-279.8140	1.1470
225.8317	-279.4140	1.1456
226.0320	-279.0150	1.1455
226.2322	-278.6140	1.1398
226.4321	-278.2150	1.1402
226.6317	-277.8150	1.1395
226.8316	-277.4150	1.1395
227.0317	-277.0150	1.1371
227.2316	-276.6150	1.1331
227.4323	-276.2150	1.1331
227.6328	-275.8150	1.1333
227.8328	-275.4150	1.1337
228.0346	-275.0150	1.1330
228.2361	-274.6050	1.1322
228.4355	-274.2160	1.1343
228.6355	-273.8050	1.1296
228.8357	-273.4150	1.1326
229.0369	-273.0040	1.1253
229.2382	-272.6040	1.1262
229.4394	-272.2040	1.1302
229.6396	-271.8040	1.1287
229.8399	-271.4050	1.1299
230.0416	-270.9950	1.1329
230.2427	-270.5950	1.1326
230.4427	-270.1950	1.1294
230.6440	-269.7950	1.1302
230.8444	-269.3950	1.1325
231.0464	-268.9850	1.1334
231.2471	-268.5850	1.1328
231.4467	-268.1850	1.1308
231.6479	-267.7850	1.1378
231.8489	-267.3840	1.1396
232.0485	-266.9840	1.1372
232.2503	-266.5850	1.1392
232.4496	-266.1850	1.1432
232.6499	-265.7850	1.1457
232.8507	-265.3850	1.1490
233.0522	-264.9750	1.1511
233.2521	-264.5750	1.1539
233.4515	-264.1750	1.1603
233.6515	-263.7750	1.1629
233.8518	-263.3750	1.1655
234.0515	-262.9750	1.1722
234.2520	-262.5750	1.1759
234.4523	-262.1750	1.1847
234.6517	-261.7760	1.1907
234.8518	-261.3760	1.1952
235.0529	-260.9760	1.2038
235.2532	-260.5760	1.2089
235.4524	-260.1760	1.2161
235.6536	-259.7760	1.2213
235.8550	-259.3760	1.2279
236.0551	-258.9760	1.2348
236.2551	-258.5760	1.2405
236.4545	-258.1760	1.2488
236.6561	-257.7660	1.2546
236.8555	-257.3660	1.2579
237.0560	-256.9660	1.2656
237.2555	-256.5770	1.2715
237.4559	-256.1660	1.2756
237.6574	-255.7660	1.2844
237.8569	-255.3660	1.2919
238.0573	-254.9660	1.2965
238.2568	-254.5660	1.3016
238.4572	-254.1660	1.3030
238.6565	-253.7660	1.3096
238.8565	-253.3660	1.3178
239.0573	-252.9670	1.3248
239.2573	-252.5670	1.3312
239.4575	-252.1670	1.3358
239.6597	-251.7670	1.3432
239.8604	-251.3570	1.3490
240.0605	-250.9570	1.3538
240.2626	-250.5570	1.3611
240.4632	-250.1570	1.3651
240.6640	-249.7570	1.3693
240.8640	-249.3560	1.3751
241.0638	-248.9570	1.3769
241.2638	-248.5570	1.3826
241.4638	-248.1570	1.3807
241.6638	-247.7560	1.3766
241.8636	-247.3560	1.3785
242.0635	-246.9560	1.3763
242.2638	-246.5560	1.3782
242.4642	-246.1570	1.3779
242.6638	-245.7570	1.3795
242.8638	-245.3570	1.3795
243.0643	-244.9470	1.3810
243.2648	-244.5460	1.3815
243.4674	-244.1470	1.3828
243.6668	-243.7470	1.3837
243.8668	-243.3470	1.3853
244.0692	-242.9460	1.3825
244.2690	-242.5460	1.3859
244.4699	-242.1460	1.3855
244.6697	-241.7360	1.3866
244.8695	-241.3370	1.3880
245.0697	-240.9470	1.3891
245.2696	-240.5470	1.3905
245.4695	-240.1370	1.3891
245.6704	-239.7470	1.3893
245.8704	-239.3370	1.3910
246.0695	-238.9370	1.3936
246.2710	-238.5370	1.3945
246.4719	-238.1370	1.3958
246.6718	-237.7370	1.3933
246.8727	-237.3380	1.3914
247.0735	-236.9370	1.3957
247.2764	-236.5270	1.3953
247.4768	-236.1280	1.3966
247.6795	-235.7170	1.3931
247.8803	-235.3170	1.3970
248.0815	-234.9180	1.3981
248.2824	-234.5170	1.3946
248.4827	-234.1170	1.3912
248.6839	-233.7170	1.3932
248.8838	-233.3170	1.3928
249.0854	-232.9070	1.3936
249.2854	-232.5080	1.3929
249.4847	-232.1070	1.3905
249.6866	-231.7070	1.3922
249.8873	-231.3080	1.3917
250.0867	-230.9080	1.3946
250.2873	-230.5070	1.3905
250.4896	-230.1070	1.3915
250.6912	-229.6970	1.3917
250.8907	-229.2970	1.3937
251.0917	-228.8970	1.3913
251.2921	-228.4970	1.3926
251.4916	-228.0970	1.3910
251.6939	-227.6970	1.3930
251.8947	-227.2880	1.3895
252.0959	-226.8870	1.3905
252.2958	-226.4870	1.3914
252.4966	-226.0880	1.3916
252.6963	-225.6880	1.3918
252.8959	-225.2880	1.3890
253.0963	-224.8880	1.3905
253.2957	-224.4880	1.3907
253.4960	-224.0880	1.3915
253.6975	-223.6880	1.3892
253.8983	-223.2780	1.3913
254.0985	-222.8880	1.3894
254.2992	-222.4880	1.3911
254.4990	-222.0880	1.3887
254.6993	-221.6780	1.3868
254.8996	-221.2790	1.3882
255.0999	-220.8780	1.3903
255.2998	-220.4790	1.3894
255.5004	-220.0790	1.3879
255.7006	-219.6790	1.3882
255.9009	-219.2780	1.3885
256.1009	-218.8780	1.3888
256.3012	-218.4780	1.3885
256.5006	-218.0780	1.3881
256.7015	-217.6780	1.3876
256.9019	-217.6690	1.3881
257.1016	-217.6690	1.3882
257.3044	-217.6700	1.3821
257.5054	-217.9070	1.3871
257.7049	-218.3070	1.3872
257.9049	-218.7070	1.3860
258.1059	-219.1070	1.3889
258.3067	-219.5070	1.3873
258.5056	-219.9070	1.3878
258.7069	-220.3070	1.3874
258.9069	-220.7070	1.3895
259.1070	-221.1070	1.3868
259.3070	-221.5070	1.3883
259.5085	-221.9170	1.3889
259.7083	-222.3070	1.3881
259.9081	-222.7180	1.3878
260.1082	-223.1070	1.3891
260.3086	-223.5070	1.3886
260.5096	-223.9170	1.3861
260.7091	-224.3170	1.3892
260.9106	-224.7170	1.3887
261.1112	-225.1180	1.3895
261.3116	-225.5180	1.3886
261.5117	-225.9180	1.3883
261.7123	-226.4900	1.3863
261.9123	-228.4860	1.3873
262.1121	-230.4850	1.3881
262.3117	-232.4840	1.3658
262.5118	-234.4840	1.3874
262.7131	-236.5350	1.3874
262.9140	-238.5340	1.3892
263.1141	-240.5340	1.3890
263.3141	-242.5330	1.3896
263.5161	-244.5370	1.3919
263.7173	-246.5360	1.3879
263.9180	-248.5350	1.3844
264.1177	-250.5350	1.3791
264.3177	-252.5340	1.3752
264.5192	-254.5850	1.3674
264.7200	-256.5850	1.3650
264.9206	-258.5850	1.3543
265.1197	-260.5840	1.3221
265.3209	-262.5830	1.2895
265.5212	-264.5820	1.2578
265.7223	-266.6340	1.2292
265.9230	-267.3360	1.1943
266.1228	-267.3360	1.1636
266.3230	-267.3350	1.1356
266.5244	-267.3350	1.1313
266.7242	-267.3350	1.1350
266.9241	-267.3350	1.1360
267.1245	-267.3350	1.1357
267.3240	-267.3350	1.1344
267.5240	-267.3350	1.1348
267.7262	-267.3350	1.1344
267.9277	-267.3350	1.1355
268.1284	-267.3350	1.1339
268.3300	-267.3350	1.1334
268.5313	-267.3350	1.1338
268.7341	-267.3350	1.1335
268.9346	-267.3350	1.1353
269.1352	-267.3350	1.1370
269.3364	-267.3350	1.1355
269.5364	-267.3350	1.1369
269.7364	-267.3350	1.1360
269.9364	-267.3350	1.1357
270.1360	-267.3350	1.1359
270.3377	-267.3350	1.1396
270.5380	-267.3350	1.1358
270.7383	-267.3350	1.1365
270.9388	-267.3350	1.1357
271.1405	-267.3350	1.1359
271.3403	-267.3350	1.1345
271.5420	-267.3350	1.1350
271.7423	-267.3350	1.1402
271.9431	-267.3350	1.1350
272.1436	-267.3350	1.1338
272.3441	-267.3350	1.1328
272.5441	-267.3350	1.1331
272.7441	-267.3350	1.1342
272.9440	-267.3350	1.1321
273.1441	-267.3350	1.1326
273.3455	-267.3350	1.1317
273.5464	-267.3350	1.1318
273.7462	-267.3350	1.1327
273.9464	-267.3350	1.1336
274.1460	-267.3350	1.1351
274.3474	-267.3350	1.1347
274.5481	-267.3350	1.1368
274.7484	-267.3350	1.1392
274.9480	-267.3350	1.1353
275.0487	-267.3350	1.1353