File: Tinius-Olsen_Levitation_force/Measurements/20231204_1536YBCOs1_sl9_3.txt
4/12/2023 3:36:53 pm
Time(s)	Displacement(mm)	Force(N)
0.0000	-267.3350	1.1533
0.2415	-267.3350	1.1536
0.4430	-267.3350	1.1544
0.6425	-267.3350	1.1554
0.8445	-267.3350	1.1577
1.0463	-267.3350	1.1557
1.2461	-267.3350	1.1564
1.4459	-267.3350	1.1560
1.6460	-267.3350	1.1575
1.8455	-267.3350	1.1550
2.0475	-267.3350	1.1564
2.2471	-267.3350	1.1563
2.4480	-267.3350	1.1550
2.6479	-267.3350	1.1549
2.8477	-267.3350	1.1547
3.0496	-267.3350	1.1597
3.2496	-267.3350	1.1554
3.4499	-267.3350	1.1539
3.6513	-267.3350	1.1522
3.8506	-267.3350	1.1520
4.0514	-267.3350	1.1561
4.2505	-267.3350	1.1550
4.4506	-267.3350	1.1567
4.6514	-267.3350	1.1572
4.8508	-267.1990	1.1748
5.0719	-267.0000	1.1646
5.2718	-267.0000	1.1650
5.4725	-267.0000	1.1634
5.6723	-267.0000	1.1595
5.8717	-267.0000	1.1606
6.0732	-267.0000	1.1602
6.2727	-267.0000	1.1634
6.4732	-267.0000	1.1624
6.6725	-267.0000	1.1601
6.8731	-267.0000	1.1612
7.0726	-267.0000	1.1597
7.2737	-267.0000	1.1624
7.4739	-267.0000	1.1605
7.6740	-267.0000	1.1595
7.8739	-267.0000	1.1583
8.0741	-267.0000	1.1599
8.2739	-267.0000	1.1623
8.4742	-267.0000	1.1626
8.6739	-267.0000	1.1601
8.8740	-267.0000	1.1615
9.0739	-267.0000	1.1610
9.2744	-267.0000	1.1585
9.4739	-267.0000	1.1623
9.6740	-267.0000	1.1613
9.8739	-267.0000	1.1595
10.0739	-267.0000	1.1610
10.2737	-267.0000	1.1591
10.4744	-267.0000	1.1632
10.6747	-267.0000	1.1605
10.8753	-267.0000	1.1596
11.0747	-267.0000	1.1619
11.2757	-267.0000	1.1578
11.4762	-267.0000	1.1613
11.6768	-267.0000	1.1572
11.8788	-267.0000	1.1583
12.0792	-267.0000	1.1608
12.2797	-267.0000	1.1587
12.4810	-267.0000	1.1615
12.6813	-267.0000	1.1610
12.8808	-267.0000	1.1667
13.0816	-267.0000	1.1645
13.2809	-267.1460	1.1533
13.5034	-268.2110	1.1504
13.7029	-269.5780	1.1332
13.9044	-270.0000	1.1341
14.1062	-270.0000	1.1369
14.3069	-270.0000	1.1348
14.5079	-270.0000	1.1309
14.7089	-270.0000	1.1309
14.9090	-270.0000	1.1327
15.1088	-270.0000	1.1341
15.3107	-270.0000	1.1303
15.5119	-270.0000	1.1330
15.7118	-270.0000	1.1338
15.9116	-270.0000	1.1335
16.1125	-270.0000	1.1322
16.3125	-270.0000	1.1323
16.5133	-270.0000	1.1321
16.7140	-270.0000	1.1319
16.9138	-270.0000	1.1331
17.1154	-270.0000	1.1316
17.3163	-270.0000	1.1339
17.5164	-270.0000	1.1344
17.7168	-270.0000	1.1340
17.9179	-270.0000	1.1335
18.1191	-270.0000	1.1310
18.3189	-270.0000	1.1325
18.5196	-270.0000	1.1336
18.7200	-270.0000	1.1339
18.9216	-270.0000	1.1330
19.1218	-270.0000	1.1366
19.3238	-270.0000	1.1347
19.5237	-270.0000	1.1337
19.7247	-270.0000	1.1343
19.9262	-270.0000	1.1363
20.1264	-270.0000	1.1331
20.3270	-270.0000	1.1344
20.5281	-270.0000	1.1339
20.7288	-270.0000	1.1317
20.9291	-270.0000	1.1300
21.1295	-270.0000	1.1305
21.3299	-270.0000	1.1300
21.5315	-270.0000	1.1301
21.7320	-270.0000	1.1292
21.9317	-270.0000	1.1329
22.1318	-270.0000	1.1305
22.3523	-270.5630	1.1113
22.5537	-271.8970	1.1201
22.7528	-273.2310	1.1218
22.9544	-274.5640	1.1172
23.1548	-275.9000	1.1194
23.3574	-277.2330	1.1164
23.5584	-278.6020	1.1156
23.7585	-279.9350	1.1152
23.9594	-281.2680	1.1141
24.1594	-282.6010	1.1165
24.3587	-283.9370	1.1124
24.5604	-285.2720	1.1139
24.7603	-286.6050	1.1101
24.9604	-287.9380	1.1054
25.1609	-289.2710	1.1036
25.3607	-290.6040	1.0959
25.5610	-291.9380	1.0869
25.7616	-293.2700	1.0761
25.9614	-294.6030	1.0635
26.1617	-295.9360	1.0448
26.3619	-297.2690	1.0214
26.5619	-298.6040	0.9899
26.7619	-299.9370	0.9557
26.9619	-301.2710	0.9174
27.1620	-302.6040	0.8675
27.3638	-303.9710	0.8074
27.5652	-305.3040	0.7336
27.7658	-306.6370	0.6515
27.9664	-307.9700	0.5520
28.1658	-309.3030	0.4387
28.3659	-310.6360	0.3010
28.5695	-312.0030	0.1330
28.7699	-313.3360	-0.0628
28.9701	-314.6710	-0.3066
29.1709	-315.6390	-0.8327
29.3715	-315.6410	-0.9835
29.5709	-315.6410	-0.8980
29.7724	-315.6400	-0.8586
29.9730	-315.6400	-0.8308
30.1731	-315.6400	-0.8107
30.3731	-315.6400	-0.7961
30.5737	-315.6400	-0.7840
30.7737	-315.6400	-0.7733
30.9741	-315.6400	-0.7628
31.1742	-315.6400	-0.7529
31.3740	-315.6400	-0.7462
31.5741	-315.6400	-0.7411
31.7752	-315.6400	-0.7322
31.9760	-315.6400	-0.7261
32.1770	-315.6400	-0.7256
32.3797	-315.6400	-0.7178
32.5800	-315.6400	-0.7110
32.7804	-315.6400	-0.7126
32.9803	-315.6400	-0.7085
33.1809	-315.6400	-0.7033
33.3812	-315.6400	-0.7038
33.5809	-315.6400	-0.6986
33.7818	-315.6400	-0.6918
33.9818	-315.6400	-0.6901
34.1811	-315.6400	-0.6886
34.3825	-315.6400	-0.6850
34.5820	-315.6400	-0.6794
34.7819	-315.6400	-0.6787
34.9823	-315.6400	-0.6764
35.1825	-315.6400	-0.6739
35.3840	-315.6400	-0.6715
35.5840	-315.6400	-0.6710
35.7841	-315.6400	-0.6674
35.9840	-315.6400	-0.6663
36.1852	-315.6400	-0.6623
36.3862	-315.6400	-0.6609
36.5862	-315.6400	-0.6586
36.7859	-315.6400	-0.6565
36.9866	-315.6400	-0.6567
37.1859	-315.6400	-0.6548
37.3866	-315.6400	-0.6521
37.5887	-315.6400	-0.6500
37.7882	-315.6400	-0.6501
37.9888	-315.6400	-0.6492
38.1897	-315.6400	-0.6466
38.3905	-315.6400	-0.6472
38.5909	-315.6400	-0.6451
38.7912	-315.6400	-0.6429
38.9918	-315.6400	-0.6410
39.1919	-315.6400	-0.6405
39.3922	-315.6400	-0.6389
39.5920	-315.6400	-0.6353
39.7927	-315.6400	-0.6371
39.9920	-315.6400	-0.6351
40.1929	-315.6400	-0.6329
40.3935	-315.6400	-0.6316
40.5943	-315.6400	-0.6327
40.7944	-315.6400	-0.6301
40.9941	-315.6400	-0.6291
41.1942	-315.6400	-0.6252
41.3940	-315.6400	-0.6253
41.5949	-315.6400	-0.6245
41.7952	-315.6400	-0.6236
41.9977	-315.6400	-0.6211
42.1970	-315.6400	-0.6194
42.3978	-315.6400	-0.6197
42.5982	-315.6400	-0.6214
42.7988	-315.6400	-0.6188
42.9986	-315.6400	-0.6195
43.1988	-315.6400	-0.6171
43.3980	-315.6400	-0.6162
43.5984	-315.6400	-0.6168
43.7981	-315.6400	-0.6131
43.9988	-315.6400	-0.6137
44.1990	-315.6400	-0.6141
44.4006	-315.6400	-0.6142
44.6015	-315.6400	-0.6117
44.8030	-315.6400	-0.6096
45.0038	-315.6400	-0.6071
45.2043	-315.6400	-0.6084
45.4042	-315.6400	-0.6079
45.6042	-315.6400	-0.6058
45.8039	-315.6400	-0.6061
46.0043	-315.6400	-0.6054
46.2040	-315.6400	-0.6061
46.4043	-315.6400	-0.6060
46.6044	-315.6400	-0.6003
46.8041	-315.6400	-0.6014
47.0041	-315.6400	-0.5989
47.2042	-315.6400	-0.5974
47.4045	-315.6400	-0.5984
47.6039	-315.6400	-0.5965
47.8039	-315.6400	-0.5937
48.0041	-315.6400	-0.5939
48.2068	-315.6400	-0.5911
48.4067	-315.6400	-0.5920
48.6066	-315.6400	-0.5934
48.8065	-315.6400	-0.5914
49.0062	-315.6400	-0.5938
49.2065	-315.6400	-0.5906
49.4070	-315.6400	-0.5914
49.6080	-315.6400	-0.5891
49.8082	-315.6400	-0.5914
50.0101	-315.6400	-0.5889
50.2114	-315.6400	-0.5869
50.4119	-315.6400	-0.5877
50.6119	-315.6400	-0.5915
50.8116	-315.6400	-0.5886
51.0115	-315.6400	-0.5885
51.2119	-315.6400	-0.5852
51.4111	-315.6400	-0.5852
51.6118	-315.6400	-0.5845
51.8120	-315.6400	-0.5862
52.0131	-315.6400	-0.5828
52.2136	-315.6400	-0.5824
52.4132	-315.6400	-0.5819
52.6137	-315.6400	-0.5824
52.8136	-315.6400	-0.5825
53.0141	-315.6400	-0.5811
53.2147	-315.6400	-0.5817
53.4145	-315.6400	-0.5799
53.6167	-315.6400	-0.5790
53.8189	-315.6400	-0.5794
54.0191	-315.6400	-0.5774
54.2191	-315.6400	-0.5760
54.4193	-315.6400	-0.5773
54.6192	-315.6400	-0.5762
54.8194	-315.6400	-0.5734
55.0208	-315.6400	-0.5749
55.2204	-315.6400	-0.5751
55.4202	-315.6400	-0.5742
55.6202	-315.6400	-0.5726
55.8210	-315.6400	-0.5730
56.0204	-315.6400	-0.5724
56.2220	-315.6400	-0.5723
56.4220	-315.6400	-0.5706
56.6227	-315.6400	-0.5717
56.8224	-315.6400	-0.5698
57.0226	-315.6400	-0.5701
57.2225	-315.6400	-0.5715
57.4229	-315.6400	-0.5701
57.6224	-315.6400	-0.5712
57.8227	-315.6400	-0.5690
58.0231	-315.6400	-0.5702
58.2235	-315.6400	-0.5680
58.4237	-315.6400	-0.5658
58.6236	-315.6400	-0.5661
58.8237	-315.6400	-0.5661
59.0232	-315.6400	-0.5654
59.2254	-315.6400	-0.5655
59.4244	-315.6400	-0.5664
59.6257	-315.6400	-0.5640
59.8261	-315.6400	-0.5618
60.0273	-315.6400	-0.5617
60.2274	-315.6400	-0.5625
60.4277	-315.6400	-0.5626
60.6271	-315.6400	-0.5631
60.8281	-315.6400	-0.5623
61.0282	-315.6400	-0.5617
61.2300	-315.6400	-0.5601
61.4310	-315.6400	-0.5628
61.6309	-315.6400	-0.5624
61.8312	-315.6400	-0.5607
62.0329	-315.6400	-0.5574
62.2330	-315.6400	-0.5585
62.4322	-315.6400	-0.5581
62.6327	-315.6400	-0.5560
62.8322	-315.6400	-0.5564
63.0338	-315.6400	-0.5542
63.2344	-315.6400	-0.5569
63.4344	-315.6400	-0.5571
63.6356	-315.6400	-0.5550
63.8368	-315.6400	-0.5553
64.0367	-315.6400	-0.5546
64.2368	-315.6400	-0.5571
64.4365	-315.6400	-0.5559
64.6363	-315.6400	-0.5539
64.8364	-315.6400	-0.5563
65.0363	-315.6400	-0.5530
65.2369	-315.6400	-0.5538
65.4366	-315.6400	-0.5541
65.6368	-315.6400	-0.5535
65.8377	-315.6400	-0.5511
66.0389	-315.6400	-0.5497
66.2384	-315.6400	-0.5498
66.4395	-315.6400	-0.5503
66.6413	-315.6400	-0.5524
66.8422	-315.6400	-0.5507
67.0422	-315.6400	-0.5506
67.2426	-315.6400	-0.5492
67.4422	-315.6400	-0.5510
67.6424	-315.6400	-0.5503
67.8422	-315.6400	-0.5491
68.0440	-315.6400	-0.5478
68.2444	-315.6400	-0.5474
68.4459	-315.6400	-0.5493
68.6452	-315.6400	-0.5486
68.8469	-315.6400	-0.5503
69.0472	-315.6400	-0.5496
69.2472	-315.6400	-0.5471
69.4483	-315.6400	-0.5473
69.6483	-315.6400	-0.5482
69.8498	-315.6400	-0.5465
70.0502	-315.6400	-0.5435
70.2520	-315.6400	-0.5437
70.4521	-315.6400	-0.5440
70.6517	-315.6400	-0.5441
70.8530	-315.6400	-0.5421
71.0530	-315.6400	-0.5409
71.2527	-315.6400	-0.5406
71.4523	-315.6400	-0.5406
71.6532	-315.6400	-0.5401
71.8533	-315.6400	-0.5406
72.0545	-315.6400	-0.5404
72.2543	-315.6400	-0.5400
72.4550	-315.6400	-0.5436
72.6545	-315.6400	-0.5410
72.8559	-315.6400	-0.5431
73.0566	-315.6400	-0.5411
73.2572	-315.6400	-0.5404
73.4580	-315.6400	-0.5386
73.6573	-315.6400	-0.5393
73.8585	-315.6400	-0.5425
74.0592	-315.6400	-0.5414
74.2598	-315.6400	-0.5395
74.4601	-315.6400	-0.5399
74.6596	-315.6400	-0.5387
74.8603	-315.6400	-0.5371
75.0605	-315.6400	-0.5402
75.2623	-315.6400	-0.5391
75.4626	-315.6400	-0.5378
75.6637	-315.6400	-0.5354
75.8644	-315.6400	-0.5391
76.0643	-315.6400	-0.5372
76.2645	-315.6400	-0.5378
76.4642	-315.6400	-0.5366
76.6645	-315.6400	-0.5381
76.8652	-315.6400	-0.5338
77.0666	-315.6400	-0.5367
77.2669	-315.6400	-0.5356
77.4670	-315.6400	-0.5321
77.6667	-315.6400	-0.5345
77.8668	-315.6400	-0.5328
78.0673	-315.6400	-0.5325
78.2678	-315.6400	-0.5327
78.4687	-315.6400	-0.5312
78.6686	-315.6400	-0.5314
78.8692	-315.6400	-0.5317
79.0689	-315.6400	-0.5307
79.2693	-315.6400	-0.5318
79.4696	-315.6400	-0.5304
79.6693	-315.6400	-0.5312
79.8693	-315.6400	-0.5282
80.0706	-315.6400	-0.5278
80.2705	-315.6400	-0.5306
80.4705	-315.6400	-0.5304
80.6712	-315.6400	-0.5295
80.8710	-315.6400	-0.5275
81.0722	-315.6400	-0.5276
81.2725	-315.6400	-0.5291
81.4724	-315.6400	-0.5308
81.6744	-315.6400	-0.5318
81.8734	-315.6400	-0.5281
82.0735	-315.6400	-0.5278
82.2734	-315.6400	-0.5269
82.4753	-315.6400	-0.5304
82.6754	-315.6400	-0.5296
82.8756	-315.6400	-0.5276
83.0767	-315.6400	-0.5275
83.2769	-315.6400	-0.5294
83.4782	-315.6400	-0.5275
83.6793	-315.6400	-0.5288
83.8799	-315.6400	-0.5305
84.0793	-315.6400	-0.5284
84.2798	-315.6400	-0.5282
84.4804	-315.6400	-0.5269
84.6813	-315.6400	-0.5264
84.8815	-315.6400	-0.5276
85.0821	-315.6400	-0.5257
85.2818	-315.6400	-0.5272
85.4814	-315.6400	-0.5275
85.6813	-315.6400	-0.5240
85.8822	-315.6400	-0.5242
86.0828	-315.6400	-0.5234
86.2839	-315.6400	-0.5226
86.4838	-315.6400	-0.5223
86.6841	-315.6400	-0.5238
86.8835	-315.6400	-0.5259
87.0838	-315.6400	-0.5264
87.2834	-315.6400	-0.5216
87.4840	-315.6400	-0.5208
87.6844	-315.6400	-0.5188
87.8844	-315.6400	-0.5209
88.0844	-315.6400	-0.5189
88.2863	-315.6400	-0.5206
88.4854	-315.6400	-0.5220
88.6855	-315.6400	-0.5215
88.8854	-315.6400	-0.5182
89.0860	-315.6400	-0.5197
89.2864	-315.6400	-0.5198
89.4869	-315.6400	-0.5210
89.6871	-315.6400	-0.5192
89.8866	-315.6400	-0.5189
90.0882	-315.6400	-0.5184
90.2883	-315.6400	-0.5188
90.4885	-315.6400	-0.5176
90.6890	-315.6400	-0.5201
90.8885	-315.6400	-0.5208
91.0894	-315.6400	-0.5195
91.2915	-315.6400	-0.5188
91.4918	-315.6400	-0.5178
91.6922	-315.6400	-0.5169
91.8918	-315.6400	-0.5145
92.0918	-315.6400	-0.5156
92.2924	-315.6400	-0.5160
92.4938	-315.6400	-0.5138
92.6955	-315.6400	-0.5136
92.8968	-315.6400	-0.5134
93.0979	-315.6400	-0.5136
93.2989	-315.6400	-0.5160
93.5000	-315.6400	-0.5152
93.7007	-315.6400	-0.5121
93.9016	-315.6400	-0.5148
94.1016	-315.6400	-0.5145
94.3025	-315.6400	-0.5148
94.5038	-315.6400	-0.5155
94.7041	-315.6400	-0.5137
94.9040	-315.6400	-0.5126
95.1040	-315.6400	-0.5124
95.3036	-315.6400	-0.5122
95.5048	-315.6400	-0.5080
95.7067	-315.6400	-0.5106
95.9073	-315.6400	-0.5116
96.1079	-315.6400	-0.5132
96.3088	-315.6400	-0.5134
96.5105	-315.6400	-0.5127
96.7108	-315.6400	-0.5129
96.9112	-315.6400	-0.5098
97.1106	-315.6400	-0.5106
97.3106	-315.6400	-0.5108
97.5110	-315.6400	-0.5151
97.7106	-315.6400	-0.5140
97.9110	-315.6400	-0.5134
98.1104	-315.6400	-0.5092
98.3106	-315.6400	-0.5088
98.5124	-315.6400	-0.5096
98.7129	-315.6400	-0.5084
98.9127	-315.6400	-0.5050
99.1124	-315.6400	-0.5063
99.3130	-315.6400	-0.5068
99.5125	-315.6400	-0.5065
99.7138	-315.6400	-0.5082
99.9139	-315.6400	-0.5076
100.1143	-315.6400	-0.5057
100.3149	-315.6400	-0.5060
100.5144	-315.6400	-0.5056
100.7154	-315.6400	-0.5070
100.9155	-315.6400	-0.5055
101.1169	-315.6400	-0.5068
101.3183	-315.6400	-0.5051
101.5178	-315.6400	-0.5070
101.7180	-315.6400	-0.5081
101.9189	-315.6400	-0.5063
102.1199	-315.6400	-0.5049
102.3203	-315.6400	-0.5065
102.5200	-315.6400	-0.5043
102.7202	-315.6400	-0.5064
102.9197	-315.6400	-0.5075
103.1211	-315.6400	-0.5072
103.3219	-315.6400	-0.5077
103.5215	-315.6400	-0.5061
103.7217	-315.6400	-0.5035
103.9227	-315.6400	-0.5032
104.1234	-315.6400	-0.5039
104.3235	-315.6400	-0.5043
104.5242	-315.6400	-0.5050
104.7243	-315.6400	-0.5071
104.9244	-315.6400	-0.5046
105.1241	-315.6400	-0.5032
105.3240	-315.6400	-0.5032
105.5243	-315.6400	-0.5046
105.7239	-315.6400	-0.5032
105.9236	-315.6400	-0.5031
106.1244	-315.6400	-0.5028
106.3248	-315.6400	-0.5020
106.5248	-315.6400	-0.5047
106.7264	-315.6400	-0.5025
106.9255	-315.6400	-0.5055
107.1256	-315.6400	-0.5035
107.3270	-315.6400	-0.5032
107.5274	-315.6400	-0.5035
107.7295	-315.6400	-0.5030
107.9292	-315.6400	-0.5024
108.1293	-315.6400	-0.5034
108.3287	-315.6400	-0.4985
108.5291	-315.6400	-0.5017
108.7288	-315.6400	-0.4984
108.9293	-315.6400	-0.5013
109.1308	-315.6400	-0.4998
109.3305	-315.6400	-0.5012
109.5334	-315.6400	-0.4995
109.7325	-315.6400	-0.5025
109.9333	-315.6400	-0.5011
110.1328	-315.6400	-0.5032
110.3333	-315.6400	-0.5027
110.5333	-315.6400	-0.5018
110.7330	-315.6400	-0.5032
110.9338	-315.6400	-0.5012
111.1341	-315.6400	-0.5013
111.3342	-315.6400	-0.5014
111.5348	-315.6400	-0.5001
111.7349	-315.6400	-0.4986
111.9358	-315.6400	-0.4964
112.1361	-315.6400	-0.4979
112.3356	-315.6400	-0.4977
112.5366	-315.6400	-0.4970
112.7369	-315.6400	-0.4967
112.9379	-315.6400	-0.4974
113.1385	-315.6400	-0.4978
113.3396	-315.6400	-0.4973
113.5409	-315.6400	-0.4990
113.7414	-315.6400	-0.4971
113.9424	-315.6400	-0.4980
114.1423	-315.6400	-0.4952
114.3423	-315.6400	-0.4962
114.5416	-315.6400	-0.4970
114.7418	-315.6400	-0.4990
114.9440	-315.6400	-0.4961
115.1439	-315.6400	-0.4967
115.3440	-315.6400	-0.4958
115.5450	-315.6400	-0.4961
115.7456	-315.6400	-0.4951
115.9470	-315.6400	-0.4948
116.1466	-315.6400	-0.4954
116.3470	-315.6400	-0.4941
116.5467	-315.6400	-0.4943
116.7473	-315.6400	-0.4931
116.9473	-315.6400	-0.4919
117.1470	-315.6400	-0.4922
117.3473	-315.6400	-0.4953
117.5470	-315.6400	-0.4951
117.7474	-315.6400	-0.4944
117.9476	-315.6400	-0.4917
118.1486	-315.6400	-0.4923
118.3490	-315.6400	-0.4915
118.5488	-315.6400	-0.4952
118.7492	-315.6400	-0.4943
118.9501	-315.6400	-0.4953
119.1511	-315.6400	-0.4937
119.3516	-315.6400	-0.4944
119.5520	-315.6400	-0.4899
119.7517	-315.6400	-0.4911
119.9529	-315.6400	-0.4926
120.1526	-315.6400	-0.4946
120.3534	-315.6400	-0.4932
120.5536	-315.6400	-0.4912
120.7528	-315.6400	-0.4926
120.9544	-315.6400	-0.4922
121.1564	-315.6400	-0.4939
121.3571	-315.6400	-0.4933
121.5567	-315.6400	-0.4937
121.7569	-315.6400	-0.4904
121.9567	-315.6400	-0.4952
122.1572	-315.6400	-0.4927
122.3570	-315.6400	-0.4919
122.5584	-315.6400	-0.4899
122.7577	-315.6400	-0.4894
122.9577	-315.6400	-0.4897
123.1579	-315.6400	-0.4905
123.3583	-315.6400	-0.4905
123.5585	-315.6400	-0.4917
123.7578	-315.6400	-0.4882
123.9578	-315.6400	-0.4916
124.1579	-315.6400	-0.4904
124.3595	-315.6400	-0.4903
124.5597	-315.6400	-0.4877
124.7619	-315.6400	-0.4905
124.9628	-315.6400	-0.4909
125.1638	-315.6400	-0.4907
125.3650	-315.6400	-0.4885
125.5648	-315.6400	-0.4892
125.7662	-315.6400	-0.4916
125.9666	-315.6400	-0.4910
126.1675	-315.6400	-0.4919
126.3680	-315.6400	-0.4896
126.5678	-315.6400	-0.4909
126.7694	-315.6400	-0.4874
126.9698	-315.6400	-0.4885
127.1708	-315.6400	-0.4850
127.3724	-315.6400	-0.4849
127.5737	-315.6400	-0.4850
127.7740	-315.6400	-0.4868
127.9752	-315.6400	-0.4870
128.1777	-315.6400	-0.4876
128.3798	-315.6400	-0.4858
128.5806	-315.6400	-0.4872
128.7819	-315.6400	-0.4853
128.9821	-315.6400	-0.4875
129.1829	-315.6400	-0.4886
129.3831	-315.6400	-0.4867
129.5834	-315.6400	-0.4867
129.7830	-315.6400	-0.4856
129.9844	-315.6400	-0.4885
130.1846	-315.6400	-0.4865
130.3842	-315.6400	-0.4858
130.5852	-315.6400	-0.4872
130.7848	-315.6400	-0.4887
130.9853	-315.6400	-0.4859
131.1849	-315.6400	-0.4850
131.3850	-315.6400	-0.4841
131.5848	-315.6400	-0.4854
131.7849	-315.6400	-0.4851
131.9850	-315.6400	-0.4873
132.1851	-315.6400	-0.4848
132.3849	-315.6400	-0.4854
132.5851	-315.6400	-0.4852
132.7848	-315.6400	-0.4866
132.9850	-315.6400	-0.4843
133.1855	-315.6400	-0.4849
133.3855	-315.6400	-0.4828
133.5867	-315.6400	-0.4826
133.7880	-315.6400	-0.4831
133.9885	-315.6400	-0.4814
134.1895	-315.6400	-0.4825
134.3897	-315.6400	-0.4824
134.5891	-315.6400	-0.4836
134.7890	-315.6400	-0.4803
134.9904	-315.6400	-0.4822
135.1909	-315.6400	-0.4806
135.3915	-315.6400	-0.4815
135.5908	-315.6400	-0.4816
135.7937	-315.6400	-0.4812
135.9943	-315.6400	-0.4796
136.1962	-315.6400	-0.4810
136.3988	-315.6400	-0.4811
136.5998	-315.6400	-0.4835
136.7994	-315.6400	-0.4817
137.0003	-315.6400	-0.4821
137.2016	-315.6400	-0.4808
137.4008	-315.6400	-0.4807
137.6012	-315.6400	-0.4814
137.8028	-315.6400	-0.4788
138.0018	-315.6400	-0.4808
138.2024	-315.6400	-0.4805
138.4018	-315.6400	-0.4813
138.6018	-315.6400	-0.4795
138.8022	-315.6400	-0.4786
139.0026	-315.6400	-0.4769
139.2037	-315.6400	-0.4784
139.4037	-315.6400	-0.4732
139.6033	-315.6400	-0.4780
139.8033	-315.6400	-0.4768
140.0038	-315.6400	-0.4788
140.2047	-315.6400	-0.4770
140.4040	-315.6400	-0.4802
140.6038	-315.6400	-0.4782
140.8044	-315.6400	-0.4800
141.0052	-315.6400	-0.4802
141.2052	-315.6400	-0.4782
141.4061	-315.6400	-0.4801
141.6073	-315.6400	-0.4773
141.8081	-315.6400	-0.4789
142.0087	-315.6400	-0.4767
142.2085	-315.6400	-0.4778
142.4090	-315.6400	-0.4745
142.6100	-315.6400	-0.4761
142.8109	-315.6400	-0.4769
143.0125	-315.6400	-0.4807
143.2131	-315.6400	-0.4795
143.4148	-315.6400	-0.4773
143.6146	-315.6400	-0.4738
143.8148	-315.6400	-0.4754
144.0153	-315.6400	-0.4765
144.2168	-315.6400	-0.4758
144.4171	-315.6400	-0.4759
144.6180	-315.6400	-0.4748
144.8182	-315.6400	-0.4729
145.0197	-315.6400	-0.4709
145.2192	-315.6400	-0.4727
145.4200	-315.6400	-0.4730
145.6201	-315.6400	-0.4736
145.8204	-315.6400	-0.4718
146.0208	-315.6400	-0.4751
146.2215	-315.6400	-0.4720
146.4217	-315.6400	-0.4734
146.6210	-315.6400	-0.4727
146.8230	-315.6400	-0.4722
147.0234	-315.6400	-0.4743
147.2239	-315.6400	-0.4727
147.4251	-315.6400	-0.4734
147.6253	-315.6400	-0.4753
147.8255	-315.6400	-0.4746
148.0252	-315.6400	-0.4732
148.2250	-315.6400	-0.4735
148.4252	-315.6400	-0.4727
148.6252	-315.6400	-0.4729
148.8263	-315.6400	-0.4747
149.0271	-315.6400	-0.4738
149.2284	-315.6400	-0.4723
149.4294	-315.6400	-0.4738
149.6315	-315.6400	-0.4740
149.8338	-315.6400	-0.4725
150.0324	-315.6400	-0.4717
150.2329	-315.6400	-0.4713
150.4331	-315.6400	-0.4719
150.6350	-315.6400	-0.4717
150.8349	-315.6400	-0.4702
151.0361	-315.6400	-0.4708
151.2371	-315.6400	-0.4697
151.4369	-315.6400	-0.4716
151.6379	-315.6400	-0.4705
151.8377	-315.6400	-0.4709
152.0379	-315.6400	-0.4710
152.2386	-315.6400	-0.4707
152.4389	-315.6400	-0.4710
152.6399	-315.6400	-0.4721
152.8401	-315.6400	-0.4720
153.0405	-315.6400	-0.4688
153.2411	-315.6400	-0.4710
153.4416	-315.6400	-0.4694
153.6415	-315.6400	-0.4676
153.8414	-315.6400	-0.4694
154.0416	-315.6400	-0.4685
154.2417	-315.6400	-0.4676
154.4414	-315.6400	-0.4687
154.6412	-315.6400	-0.4689
154.8413	-315.6400	-0.4719
155.0413	-315.6400	-0.4732
155.2410	-315.6400	-0.4706
155.4421	-315.6400	-0.4712
155.6438	-315.6400	-0.4712
155.8434	-315.6400	-0.4693
156.0450	-315.6400	-0.4698
156.2470	-315.6400	-0.4691
156.4474	-315.6400	-0.4691
156.6477	-315.6400	-0.4714
156.8477	-315.6400	-0.4725
157.0472	-315.6400	-0.4705
157.2471	-315.6400	-0.4723
157.4498	-315.6400	-0.4708
157.6482	-315.6400	-0.4705
157.8491	-315.6400	-0.4699
158.0491	-315.6400	-0.4683
158.2511	-315.6400	-0.4662
158.4519	-315.6400	-0.4688
158.6518	-315.6400	-0.4665
158.8530	-315.6400	-0.4666
159.0522	-315.6400	-0.4671
159.2531	-315.6400	-0.4688
159.4535	-315.6400	-0.4697
159.6548	-315.6400	-0.4693
159.8541	-315.6400	-0.4682
160.0551	-315.6400	-0.4662
160.2553	-315.6400	-0.4688
160.4553	-315.6400	-0.4676
160.6553	-315.6400	-0.4669
160.8553	-315.6400	-0.4655
161.0553	-315.6400	-0.4664
161.2570	-315.6400	-0.4669
161.4577	-315.6400	-0.4655
161.6578	-315.6400	-0.4643
161.8572	-315.6400	-0.4634
162.0571	-315.6400	-0.4645
162.2579	-315.6400	-0.4616
162.4579	-315.6400	-0.4629
162.6576	-315.6400	-0.4633
162.8571	-315.6400	-0.4615
163.0573	-315.6400	-0.4620
163.2581	-315.6400	-0.4646
163.4589	-315.6400	-0.4664
163.6599	-315.6400	-0.4649
163.8603	-315.6400	-0.4635
164.0602	-315.6400	-0.4653
164.2602	-315.6400	-0.4649
164.4618	-315.6400	-0.4613
164.6611	-315.6400	-0.4632
164.8626	-315.6400	-0.4633
165.0638	-315.6400	-0.4635
165.2643	-315.6400	-0.4640
165.4661	-315.6400	-0.4607
165.6651	-315.6400	-0.4631
165.8663	-315.6400	-0.4620
166.0661	-315.6400	-0.4619
166.2669	-315.6400	-0.4622
166.4671	-315.6400	-0.4620
166.6678	-315.6400	-0.4632
166.8686	-315.6400	-0.4637
167.0682	-315.6400	-0.4633
167.2693	-315.6400	-0.4623
167.4696	-315.6400	-0.4635
167.6701	-315.6400	-0.4631
167.8714	-315.6400	-0.4646
168.0716	-315.6400	-0.4633
168.2719	-315.6400	-0.4640
168.4731	-315.6400	-0.4634
168.6733	-315.6400	-0.4622
168.8732	-315.6400	-0.4630
169.0742	-315.6400	-0.4624
169.2747	-315.6400	-0.4656
169.4749	-315.6400	-0.4640
169.6743	-315.6400	-0.4626
169.8755	-315.6400	-0.4602
170.0769	-315.6400	-0.4608
170.2776	-315.6400	-0.4617
170.4776	-315.6400	-0.4606
170.6789	-315.6400	-0.4607
170.8804	-315.6400	-0.4604
171.0821	-315.6400	-0.4627
171.2823	-315.6400	-0.4604
171.4836	-315.6400	-0.4640
171.6835	-315.6400	-0.4597
171.8835	-315.6400	-0.4645
172.0831	-315.6400	-0.4622
172.2842	-315.6400	-0.4610
172.4852	-315.6400	-0.4622
172.6852	-315.6400	-0.4619
172.8864	-315.6400	-0.4611
173.0874	-315.6400	-0.4612
173.2911	-315.6400	-0.4620
173.4921	-315.6400	-0.4617
173.6921	-315.6400	-0.4614
173.8915	-315.6400	-0.4600
174.0926	-315.6400	-0.4610
174.2925	-315.6400	-0.4620
174.4931	-315.6400	-0.4612
174.6925	-315.6400	-0.4596
174.8923	-315.6400	-0.4583
175.0932	-315.6400	-0.4604
175.2936	-315.6400	-0.4613
175.4941	-315.6400	-0.4614
175.6947	-315.6400	-0.4594
175.8960	-315.6400	-0.4581
176.0953	-315.6400	-0.4566
176.2965	-315.6400	-0.4575
176.4967	-315.6400	-0.4578
176.6969	-315.6400	-0.4576
176.8979	-315.6400	-0.4583
177.0979	-315.6400	-0.4588
177.2990	-315.6400	-0.4556
177.4987	-315.6400	-0.4557
177.6988	-315.6400	-0.4570
177.8991	-315.6400	-0.4566
178.0988	-315.6400	-0.4569
178.2994	-315.6400	-0.4565
178.4999	-315.6400	-0.4571
178.7028	-315.6400	-0.4592
178.9035	-315.6400	-0.4575
179.1046	-315.6400	-0.4557
179.3065	-315.6400	-0.4573
179.5072	-315.6400	-0.4568
179.7090	-315.6400	-0.4579
179.9101	-315.6400	-0.4553
180.1107	-315.6400	-0.4565
180.3119	-315.6400	-0.4564
180.5118	-315.6400	-0.4581
180.7122	-315.6400	-0.4577
180.9133	-315.6400	-0.4547
181.1139	-315.6400	-0.4549
181.3136	-315.6400	-0.4551
181.5143	-315.6400	-0.4532
181.7142	-315.6400	-0.4537
181.9162	-315.6400	-0.4562
182.1172	-315.6400	-0.4514
182.3178	-315.6400	-0.4516
182.5197	-315.6400	-0.4503
182.7197	-315.6400	-0.4534
182.9207	-315.6400	-0.4539
183.1222	-315.6400	-0.4537
183.3223	-315.6400	-0.4513
183.5232	-315.6400	-0.4527
183.7234	-315.6400	-0.4530
183.9261	-315.6400	-0.4562
184.1256	-315.6400	-0.4556
184.3271	-315.6400	-0.4558
184.5269	-315.6400	-0.4542
184.7266	-315.6400	-0.4548
184.9264	-315.6400	-0.4537
185.1279	-315.6400	-0.4561
185.3277	-315.6400	-0.4531
185.5276	-315.6400	-0.4533
185.7289	-315.6400	-0.4504
185.9292	-315.6400	-0.4527
186.1299	-315.6400	-0.4528
186.3312	-315.6400	-0.4526
186.5302	-315.6400	-0.4547
186.7308	-315.6400	-0.4552
186.9308	-315.6400	-0.4537
187.1306	-315.6400	-0.4529
187.3305	-315.6400	-0.4548
187.5314	-315.6400	-0.4513
187.7318	-315.6400	-0.4551
187.9342	-315.6400	-0.4510
188.1352	-315.6400	-0.4541
188.3348	-315.6400	-0.4541
188.5373	-315.6400	-0.4537
188.7369	-315.6400	-0.4520
188.9379	-315.6400	-0.4530
189.1376	-315.6400	-0.4512
189.3387	-315.6400	-0.4536
189.5386	-315.6400	-0.4520
189.7383	-315.6400	-0.4502
189.9386	-315.6400	-0.4495
190.1398	-315.6400	-0.4513
190.3397	-315.6400	-0.4535
190.5398	-315.6400	-0.4505
190.7397	-315.6400	-0.4513
190.9408	-315.6400	-0.4497
191.1415	-315.6400	-0.4498
191.3432	-315.6400	-0.4480
191.5442	-315.6400	-0.4521
191.7452	-315.6400	-0.4499
191.9451	-315.6400	-0.4483
192.1450	-315.6400	-0.4473
192.3447	-315.6400	-0.4478
192.5455	-315.6400	-0.4465
192.7457	-315.6400	-0.4508
192.9455	-315.6400	-0.4476
193.1461	-315.6400	-0.4481
193.3454	-315.6400	-0.4486
193.5471	-315.6400	-0.4512
193.7463	-315.6400	-0.4488
193.9466	-315.6400	-0.4489
194.1478	-315.6400	-0.4479
194.3485	-315.6400	-0.4462
194.5484	-315.6400	-0.4497
194.7510	-315.6400	-0.4470
194.9514	-315.6400	-0.4500
195.1519	-315.6400	-0.4490
195.3516	-315.6400	-0.4505
195.5528	-315.6400	-0.4476
195.7542	-315.6400	-0.4494
195.9538	-315.6400	-0.4477
196.1534	-315.6400	-0.4484
196.3539	-315.6400	-0.4494
196.5546	-315.6400	-0.4494
196.7569	-315.6400	-0.4479
196.9578	-315.6400	-0.4484
197.1574	-315.6400	-0.4470
197.3581	-315.6400	-0.4465
197.5584	-315.6400	-0.4460
197.7603	-315.6400	-0.4459
197.9595	-315.6400	-0.4486
198.1596	-315.6400	-0.4487
198.3609	-315.6400	-0.4468
198.5612	-315.6400	-0.4469
198.7614	-315.6400	-0.4488
198.9619	-315.6400	-0.4456
199.1615	-315.6400	-0.4440
199.3619	-315.6400	-0.4466
199.5619	-315.6400	-0.4484
199.7622	-315.6400	-0.4483
199.9619	-315.6400	-0.4468
200.1624	-315.6400	-0.4465
200.3631	-315.6400	-0.4454
200.5628	-315.6400	-0.4447
200.7629	-315.6400	-0.4450
200.9635	-315.6400	-0.4462
201.1634	-315.6400	-0.4457
201.3637	-315.6400	-0.4468
201.5638	-315.6400	-0.4446
201.7639	-315.6400	-0.4461
201.9654	-315.6400	-0.4445
202.1655	-315.6400	-0.4437
202.3660	-315.6400	-0.4460
202.5674	-315.6400	-0.4453
202.7665	-315.6400	-0.4446
202.9684	-315.6400	-0.4449
203.1679	-315.6400	-0.4432
203.3693	-315.6400	-0.4433
203.5691	-315.6400	-0.4406
203.7694	-315.6400	-0.4431
203.9691	-315.6400	-0.4414
204.1704	-315.6400	-0.4428
204.3719	-315.6400	-0.4453
204.5733	-315.6400	-0.4412
204.7753	-315.6400	-0.4432
204.9753	-315.6400	-0.4416
205.1760	-315.6400	-0.4415
205.3757	-315.6400	-0.4407
205.5773	-315.6400	-0.4409
205.7776	-315.6400	-0.4415
205.9785	-315.6400	-0.4395
206.1797	-315.6400	-0.4407
206.3812	-315.6400	-0.4400
206.5816	-315.6400	-0.4421
206.7822	-315.6400	-0.4378
206.9820	-315.6400	-0.4419
207.1824	-315.6400	-0.4414
207.3823	-315.6400	-0.4392
207.5832	-315.6400	-0.4419
207.7832	-315.6400	-0.4413
207.9827	-315.6400	-0.4426
208.1833	-315.6400	-0.4438
208.3844	-315.6400	-0.4430
208.5851	-315.6400	-0.4416
208.7852	-315.6400	-0.4443
208.9848	-315.6400	-0.4434
209.1857	-315.6400	-0.4428
209.3857	-315.6400	-0.4409
209.5869	-315.6400	-0.4401
209.7867	-315.6400	-0.4409
209.9888	-315.6400	-0.4431
210.1902	-315.6400	-0.4403
210.3920	-315.6400	-0.4405
210.5919	-315.6400	-0.4394
210.7915	-315.6400	-0.4408
210.9920	-315.6400	-0.4406
211.1920	-315.6400	-0.4419
211.3919	-315.6400	-0.4420
211.5932	-315.6400	-0.4398
211.7928	-315.6400	-0.4410
211.9950	-315.6400	-0.4414
212.1962	-315.6400	-0.4401
212.3958	-315.6400	-0.4401
212.5965	-315.6400	-0.4410
212.7975	-315.6400	-0.4400
212.9982	-315.6400	-0.4401
213.1979	-315.6400	-0.4422
213.3995	-315.6400	-0.4415
213.6004	-315.6400	-0.4422
213.8013	-315.6400	-0.4413
214.0010	-315.6400	-0.4413
214.2012	-315.6400	-0.4418
214.4010	-315.6400	-0.4428
214.6012	-315.6400	-0.4401
214.8014	-315.6400	-0.4409
215.0008	-315.6400	-0.4391
215.2010	-315.6400	-0.4399
215.4033	-315.6400	-0.4403
215.6033	-315.6400	-0.4400
215.8039	-315.6400	-0.4369
216.0044	-315.6400	-0.4370
216.2047	-315.6400	-0.4368
216.4051	-315.6400	-0.4402
216.6059	-315.6400	-0.4376
216.8058	-315.6400	-0.4395
217.0068	-315.6400	-0.4383
217.2068	-315.6400	-0.4364
217.4092	-315.6400	-0.4379
217.6100	-315.6400	-0.4399
217.8107	-315.6400	-0.4388
218.0126	-315.6400	-0.4375
218.2126	-315.6400	-0.4396
218.4131	-315.6400	-0.4383
218.6145	-315.6400	-0.4389
218.8147	-315.6400	-0.4393
219.0166	-315.6400	-0.4399
219.2174	-315.6400	-0.4379
219.4167	-315.6400	-0.4368
219.6172	-315.6400	-0.4369
219.8175	-315.6400	-0.4390
220.0171	-315.6400	-0.4390
220.2187	-315.6400	-0.4395
220.4198	-315.6400	-0.4402
220.6213	-315.6400	-0.4395
220.8228	-315.6400	-0.4381
221.0237	-315.6400	-0.4373
221.2240	-315.6400	-0.4385
221.4239	-315.6400	-0.4389
221.6259	-315.6400	-0.4376
221.8256	-315.6400	-0.4357
222.0259	-315.6400	-0.4371
222.2256	-315.6400	-0.4342
222.4268	-315.6400	-0.4352
222.6292	-315.6400	-0.4374
222.8299	-315.6400	-0.4373
223.0300	-315.6400	-0.4377
223.2308	-315.6400	-0.4376
223.4313	-315.6400	-0.4367
223.6313	-315.6400	-0.4365
223.8309	-315.6400	-0.4375
224.0310	-315.6400	-0.4372
224.2308	-315.6400	-0.4375
224.4310	-315.6400	-0.4362
224.6307	-315.6400	-0.4361