File: Tinius-Olsen_Levitation_force/Measurements/zero_force.txt
27/11/2023 10:22:30 am
Time(s)	Displacement(mm) Force(N)
0.0000	50.0000	-0.3487
4.8992	50.0000	-0.3370
5.0192	50.0000	-0.3560
5.1190	50.0000	-0.3286
5.2191	50.0000	-0.3473
5.3192	50.0000	-0.3501
5.4191	50.0000	-0.3421
5.5196	50.0000	-0.3511
5.6201	50.0000	-0.3450
5.7201	50.0000	-0.3443
5.8199	50.0000	-0.3397
5.9216	50.0000	-0.3538
6.0213	50.0000	-0.3384
6.1211	50.0000	-0.3501
6.2208	50.0000	-0.3405
6.3225	50.0000	-0.3502
6.4216	50.0000	-0.3441
6.5224	50.0000	-0.3477
6.6221	50.0000	-0.3462
6.7224	50.0000	-0.3367
6.8220	50.0000	-0.3525
6.9217	50.0000	-0.3410
7.0220	50.0000	-0.3431
7.1223	50.0000	-0.3507
7.2233	50.0000	-0.3555
7.3232	50.0000	-0.3489
7.4229	50.0000	-0.3407
7.5230	50.0000	-0.3130
7.6239	50.0000	-0.3507
7.7238	50.0000	-0.3567
7.8239	50.0000	-0.3459
7.9242	50.0000	-0.3255
8.0242	50.0000	-0.3480
8.1247	50.0000	-0.3538
8.2248	50.0000	-0.3414
8.3261	50.0000	-0.3383
8.4258	50.0000	-0.3538
8.5260	50.0000	-0.3400
8.6261	50.0000	-0.3456
8.7259	50.0000	-0.3304
8.8261	50.0000	-0.3538
8.9258	50.0000	-0.3439
9.0262	50.0000	-0.3433
9.1265	50.0000	-0.3568
9.2265	50.0000	-0.3379
9.3260	50.0000	-0.3262
9.4262	50.0000	-0.3520
9.5265	50.0000	-0.3503
9.6261	50.0000	-0.3366
9.7262	50.0000	-0.3408
9.8266	50.0000	-0.3515
9.9268	50.0000	-0.3352
10.0272	50.0000	-0.3550
10.1266	50.0000	-0.3372
10.2272	50.0000	-0.3433
10.3272	50.0000	-0.3522
10.4272	50.0000	-0.3327
10.5274	50.0000	-0.3346
10.6282	50.0000	-0.3516
10.7282	50.0000	-0.3327
10.8296	50.0000	-0.3432
10.9290	50.0000	-0.3513
11.0296	50.0000	-0.3329
11.1290	50.0000	-0.3498
11.2296	50.0000	-0.3390
11.3296	50.0000	-0.3510
11.4293	50.0000	-0.3471
11.5296	50.0000	-0.3346
11.6295	50.0000	-0.3538
11.7296	50.0000	-0.3413
11.8295	50.0000	-0.3316
11.9293	50.0000	-0.3485
12.0296	50.0000	-0.3456
12.1295	50.0000	-0.3307
12.2296	50.0000	-0.3446
12.3292	50.0000	-0.3423
12.4296	50.0000	-0.3234
12.5296	50.0000	-0.3451
12.6294	50.0000	-0.3447
12.7296	50.0000	-0.3502
12.8296	50.0000	-0.3537
12.9297	50.0000	-0.3358
13.0299	50.0000	-0.3474
13.1314	50.0000	-0.3479
13.2320	50.0000	-0.3357
13.3320	50.0000	-0.3497
13.4319	50.0000	-0.3375
13.5319	50.0000	-0.3438
13.6336	50.0000	-0.3412
13.7333	50.0000	-0.3424
13.8341	50.0000	-0.3421
13.9355	50.0000	-0.3416
14.0350	50.0000	-0.3403
14.1348	50.0000	-0.3423
14.2364	50.0000	-0.3428
14.3367	50.0000	-0.3402
14.4361	50.0000	-0.3401
14.5364	50.0000	-0.3421
14.6366	50.0000	-0.3490
14.7363	50.0000	-0.3348
14.8368	50.0000	-0.3489
14.9370	50.0000	-0.3387
15.0372	50.0000	-0.3636
15.1381	50.0000	-0.3507
15.2383	50.0000	-0.3478
15.3385	50.0000	-0.3451
15.4379	50.0000	-0.3476
15.5378	50.0000	-0.3443
15.6387	50.0000	-0.3503
15.7395	50.0000	-0.3372
15.8392	50.0000	-0.3510
15.9396	50.0000	-0.3397
16.0396	50.0000	-0.3460
16.1396	50.0000	-0.3440
16.2397	50.0000	-0.3536
16.3390	50.0000	-0.3406
16.4396	50.0000	-0.3486
16.5392	50.0000	-0.3443
16.6391	50.0000	-0.3443
16.7392	50.0000	-0.3474
16.8396	50.0000	-0.3426
16.9391	50.0000	-0.3488
17.0395	50.0000	-0.3371
17.1392	50.0000	-0.3393
17.2397	50.0000	-0.3511
17.3397	50.0000	-0.3483
17.4392	50.0000	-0.3229
17.5396	50.0000	-0.3430
17.6396	50.0000	-0.3322
17.7397	50.0000	-0.3494
17.8396	50.0000	-0.3355
17.9396	50.0000	-0.3531
18.0400	50.0000	-0.3537
18.1402	50.0000	-0.3383
18.2407	50.0000	-0.3454
18.3417	50.0000	-0.3487
18.4421	50.0000	-0.3374
18.5421	50.0000	-0.3707
18.6419	50.0000	-0.3438
18.7425	50.0000	-0.3442
18.8422	50.0000	-0.3442
18.9424	50.0000	-0.3494
19.0421	50.0000	-0.3286
19.1418	50.0000	-0.3516
19.2426	50.0000	-0.3327
19.3419	50.0000	-0.3411
19.4418	50.0000	-0.3515
19.5420	50.0000	-0.3497
19.6420	50.0000	-0.3349
19.7423	50.0000	-0.3303
19.8438	50.0000	-0.3547
19.9440	50.0000	-0.3416
20.0441	50.0000	-0.3335
20.1447	50.0000	-0.3376
20.2446	50.0000	-0.3554
20.3441	50.0000	-0.3357
20.4441	50.0000	-0.3465
20.5451	50.0000	-0.3529
20.6450	50.0000	-0.3499
20.7466	50.0000	-0.3362
20.8468	50.0000	-0.3361
20.9474	50.0000	-0.3560
21.0474	50.0000	-0.3467
21.1473	50.0000	-0.3381
21.2473	50.0000	-0.3549
21.3469	50.0000	-0.3389
21.4474	50.0000	-0.3744
21.5475	50.0000	-0.3433
21.6475	50.0000	-0.3520
21.7471	50.0000	-0.3455
21.8473	50.0000	-0.3417
21.9479	50.0000	-0.3387
22.0488	50.0000	-0.3512
22.1497	50.0000	-0.3326
22.2496	50.0000	-0.3507
22.3496	50.0000	-0.3324
22.4488	50.0000	-0.3534
22.5497	50.0000	-0.3389
22.6497	50.0000	-0.3462
22.7497	50.0000	-0.3438
22.8496	50.0000	-0.3366
22.9501	50.0000	-0.3515
23.0498	50.0000	-0.3486
23.1507	50.0000	-0.3312
23.2518	50.0000	-0.3403
23.3522	50.0000	-0.3376
23.4521	50.0000	-0.3388
23.5518	50.0000	-0.3528
23.6519	50.0000	-0.3554
23.7520	50.0000	-0.3376
23.8521	50.0000	-0.3713
23.9520	50.0000	-0.3567
24.0521	50.0000	-0.3615
24.1521	50.0000	-0.3337
24.2518	50.0000	-0.3433
24.3537	50.0000	-0.3564
24.4528	50.0000	-0.3548
24.5530	50.0000	-0.3493
24.6528	50.0000	-0.3470
24.7533	50.0000	-0.3154
24.8533	50.0000	-0.3364
24.9536	50.0000	-0.3542
25.0537	50.0000	-0.3535
25.1537	50.0000	-0.3533
25.2530	50.0000	-0.3408
25.3537	50.0000	-0.3349
25.4530	50.0000	-0.3441
25.5532	50.0000	-0.3442
25.6529	50.0000	-0.3542
25.7530	50.0000	-0.3377
25.8537	50.0000	-0.3541
25.9539	50.0000	-0.3497
26.0543	50.0000	-0.3339
26.1545	50.0000	-0.3361
26.2546	50.0000	-0.3305
26.3543	50.0000	-0.3507
26.4546	50.0000	-0.3555
26.5549	50.0000	-0.3561
26.6551	50.0000	-0.3579
26.7549	50.0000	-0.3579
26.8552	50.0000	-0.3536
26.9562	50.0000	-0.3479
27.0561	50.0000	-0.3344
27.1568	50.0000	-0.3280
27.2569	50.0000	-0.3234
27.3570	50.0000	-0.3384
27.4576	50.0000	-0.3372
27.5574	50.0000	-0.3531
27.6573	50.0000	-0.3565
27.7577	50.0000	-0.3452
27.8574	50.0000	-0.3298
27.9579	50.0000	-0.3429
28.0590	50.0000	-0.3557
28.1591	50.0000	-0.3401
28.2598	50.0000	-0.3424
28.3597	50.0000	-0.3470
28.4598	50.0000	-0.3420
28.5590	50.0000	-0.3452
28.6594	50.0000	-0.3414
28.7596	50.0000	-0.3463
28.8597	50.0000	-0.3547
28.9598	50.0000	-0.3405
29.0597	50.0000	-0.3363
29.1596	50.0000	-0.3476
29.2598	50.0000	-0.3567
29.3598	50.0000	-0.3443
29.4598	50.0000	-0.3348
29.5604	50.0000	-0.3498
29.6617	50.0000	-0.3421
29.7617	50.0000	-0.3338
29.8616	50.0000	-0.3508
29.9613	50.0000	-0.3428
30.0621	50.0000	-0.3391
30.1622	50.0000	-0.3463
30.2618	50.0000	-0.3480
30.3624	50.0000	-0.3354
30.4621	50.0000	-0.3510
30.5622	50.0000	-0.3432
30.6622	50.0000	-0.3420
30.7639	50.0000	-0.3450
30.8641	50.0000	-0.3499
30.9641	50.0000	-0.3343
31.0643	50.0000	-0.3532
31.1642	50.0000	-0.3408
31.2642	50.0000	-0.3490
31.3642	50.0000	-0.3413
31.4644	50.0000	-0.3465
31.5644	50.0000	-0.3364
31.6649	50.0000	-0.3308
31.7657	50.0000	-0.3430
31.8660	50.0000	-0.3553
31.9664	50.0000	-0.3441
32.0665	50.0000	-0.3355
32.1664	50.0000	-0.3433
32.2669	50.0000	-0.3546
32.3688	50.0000	-0.3549
32.4683	50.0000	-0.3374
32.5683	50.0000	-0.3525
32.6683	50.0000	-0.3397
32.7684	50.0000	-0.3485
32.8679	50.0000	-0.3349
32.9678	50.0000	-0.3422
33.0679	50.0000	-0.3520
33.1678	50.0000	-0.3405
33.2686	50.0000	-0.3478
33.3679	50.0000	-0.3488
33.4683	50.0000	-0.3433
33.5686	50.0000	-0.3443
33.6697	50.0000	-0.3449
33.7697	50.0000	-0.3434
33.8698	50.0000	-0.3396
33.9693	50.0000	-0.3484
34.0693	50.0000	-0.3434
34.1697	50.0000	-0.3423
34.2698	50.0000	-0.3406
34.3699	50.0000	-0.3510
34.4700	50.0000	-0.3539
34.5718	50.0000	-0.3289
34.6715	50.0000	-0.3330
34.7713	50.0000	-0.3515
34.8728	50.0000	-0.3553
34.9726	50.0000	-0.3403
35.0721	50.0000	-0.3524
35.1722	50.0000	-0.3380
35.2722	50.0000	-0.3534
35.3722	50.0000	-0.3415
35.4721	50.0000	-0.3473
35.5722	50.0000	-0.3452
35.6722	50.0000	-0.3465
35.7722	50.0000	-0.3472
35.8722	50.0000	-0.3445
35.9722	50.0000	-0.3522
36.0723	50.0000	-0.3424
36.1719	50.0000	-0.3478
36.2725	50.0000	-0.3469
36.3724	50.0000	-0.3395
36.4719	50.0000	-0.3470
36.5736	50.0000	-0.3474
36.6731	50.0000	-0.3416
36.7731	50.0000	-0.3488
36.8741	50.0000	-0.3492
36.9745	50.0000	-0.3451
37.0742	50.0000	-0.3424
37.1758	50.0000	-0.3510
37.2754	50.0000	-0.3375
37.3766	50.0000	-0.3533
37.4765	50.0000	-0.3427
37.5768	50.0000	-0.3466
37.6759	50.0000	-0.3514
37.7761	50.0000	-0.3431
37.8762	50.0000	-0.3509
37.9762	50.0000	-0.3453
38.0776	50.0000	-0.3488
38.1770	50.0000	-0.3454
38.2776	50.0000	-0.3426
38.3770	50.0000	-0.3446
38.4778	50.0000	-0.3478
38.5776	50.0000	-0.3424
38.6774	50.0000	-0.3483
38.7775	50.0000	-0.3484
38.8772	50.0000	-0.3501
38.9772	50.0000	-0.3388
39.0775	50.0000	-0.3487
39.1775	50.0000	-0.3469
39.2775	50.0000	-0.3424
39.3772	50.0000	-0.3458
39.4777	50.0000	-0.3467
39.5775	50.0000	-0.3450
39.6776	50.0000	-0.3473
39.7774	50.0000	-0.3428
39.8780	50.0000	-0.3478
39.9789	50.0000	-0.3435
40.0793	50.0000	-0.3427
40.1791	50.0000	-0.3451
40.2798	50.0000	-0.3488
40.3792	50.0000	-0.3411
40.4795	50.0000	-0.3459
40.5802	50.0000	-0.3434
40.6819	50.0000	-0.3429
40.7822	50.0000	-0.3440
40.8820	50.0000	-0.3479
40.9819	50.0000	-0.3462
41.0822	50.0000	-0.3397
41.1821	50.0000	-0.3443
41.2821	50.0000	-0.3471