File: Tinius-Olsen_Levitation_force/Preprocessed_measures/20231204_1649GDBCOs2_sl6_3.txt.csv
Time(s),Displacement(mm),Force(N)
0.0,-266.928,3.05335
0.1199,-267.338,3.06791
0.2195,-268.024,3.05679
0.3194,-268.673,3.04344
0.4203,-269.357,3.03374
0.5209,-270.006,3.02383
0.6207,-270.69,3.03131
0.7213,-271.374,3.02323
0.8213,-272.023,3.03617
0.9213,-272.707,3.04041
1.0221,-273.356,3.03475
1.124,-274.04,3.04102
1.2233,-274.689,3.04466
1.3237,-275.373,3.04304
1.4241,-276.056,3.05396
1.5269,-276.74,3.05618
1.6255,-277.39,3.05315
1.7255,-278.039,3.06306
1.8251,-278.722,3.06629
1.9264,-279.406,3.08408
2.0272,-280.055,3.07923
2.1272,-280.739,3.0948
2.2271,-281.423,3.10349
2.3279,-282.072,3.10713
2.4276,-282.721,3.11138
2.5273,-283.405,3.1225
2.6271,-284.054,3.12917
2.728,-284.738,3.13867
2.8271,-285.387,3.14211
2.9272,-286.071,3.15667
3.0276,-286.72,3.16617
3.128,-287.404,3.17507
3.2281,-288.053,3.19246
3.3291,-288.74,3.19913
3.4294,-289.425,3.20944
3.5294,-290.075,3.22258
3.6294,-290.759,3.2339
3.7291,-291.408,3.24199
3.8302,-292.091,3.25574
3.9303,-292.741,3.26464
4.0306,-293.424,3.26908
4.1313,-294.108,3.28324
4.2314,-294.758,3.29476
4.3313,-295.441,3.29598
4.4317,-296.09,3.30487
4.5313,-296.774,3.30305
4.6322,-297.424,3.30285
4.7343,-298.107,3.29638
4.8343,-298.791,3.27798
4.9343,-299.44,3.27454
5.0349,-300.124,3.25574
5.1348,-300.773,3.21955
5.235,-301.46,3.1874
5.3346,-302.108,3.14191
5.4361,-302.793,3.06508
5.5359,-303.442,2.97915
5.6358,-304.125,2.87907
5.7361,-304.809,2.75432
5.8369,-305.458,2.59722
5.9366,-306.142,2.40049
6.0376,-306.791,2.17324
6.1377,-307.475,1.87986
6.2379,-308.158,1.54565
6.3379,-308.808,1.1435
6.4373,-309.457,0.653805
6.5373,-310.141,0.0959737
6.638,-310.79,-0.576498
6.7374,-311.474,-1.36826
6.8389,-312.158,-2.29488
6.9392,-312.807,-3.38406
7.0394,-313.491,-4.64064
7.1402,-314.14,-6.08183
7.2414,-314.823,-7.70639
7.3412,-315.507,-9.51556
7.4416,-316.157,-11.6177
7.5414,-316.778,-13.4198
7.6421,-316.801,-13.3435
7.7414,-316.801,-13.2241
7.8411,-316.801,-13.1523
7.9418,-316.801,-13.1052
8.0424,-316.8,-13.0647
8.1426,-316.8,-13.0302
8.2444,-316.8,-13.0065
8.3434,-316.8,-12.9782
8.4433,-316.8,-12.9596
8.5433,-316.8,-12.9398
8.6432,-316.8,-12.926
8.7435,-316.8,-12.9062
8.8439,-316.8,-12.8925
8.9441,-316.8,-12.8801
9.0437,-316.8,-12.8702
9.1434,-316.8,-12.8603
9.2433,-316.8,-12.8498
9.3432,-316.8,-12.8439
9.4461,-316.8,-12.8312
9.5451,-316.8,-12.8185
9.6461,-316.8,-12.813
9.7452,-316.8,-12.8104
9.8457,-316.8,-12.7974
9.9455,-316.8,-12.7914
10.0461,-316.8,-12.7811
10.1463,-316.8,-12.778
10.2466,-316.8,-12.775
10.3472,-316.8,-12.7592
10.4473,-316.8,-12.7564
10.5473,-316.8,-12.7548
10.6473,-316.8,-12.7489
10.7475,-316.8,-12.7477
10.8473,-316.8,-12.7433
10.9477,-316.8,-12.7398
11.0477,-316.8,-12.7275
11.1475,-316.8,-12.7261
11.2485,-316.8,-12.7172
11.3487,-316.8,-12.7162
11.4488,-316.8,-12.7075
11.5489,-316.8,-12.703
11.6483,-316.8,-12.7079
11.7487,-316.8,-12.698
11.8487,-316.8,-12.7008
11.9485,-316.8,-12.6903
12.0487,-316.8,-12.6879
12.1488,-316.8,-12.6877
12.2484,-316.8,-12.685
12.3487,-316.8,-12.6769
12.4487,-316.8,-12.6769
12.5488,-316.8,-12.6687
12.6488,-316.8,-12.6678
12.7488,-316.8,-12.6729
12.8494,-316.8,-12.6646
12.9492,-316.8,-12.6598
13.0495,-316.8,-12.6571
13.1494,-316.8,-12.6567
13.2493,-316.8,-12.6509
13.3492,-316.8,-12.6503
13.4492,-316.8,-12.6505
13.5493,-316.8,-12.6436
13.6509,-316.8,-12.6472
13.7505,-316.8,-12.6369
13.8502,-316.8,-12.6393
13.9505,-316.8,-12.6331
14.0508,-316.8,-12.6345
14.1502,-316.8,-12.6298
14.2507,-316.8,-12.6266
14.3504,-316.8,-12.6278
14.4511,-316.8,-12.623
14.5506,-316.8,-12.6215
14.6503,-316.8,-12.6147
14.7507,-316.8,-12.609
14.8517,-316.8,-12.6092
14.9528,-316.8,-12.6056
15.0533,-316.8,-12.6112
15.1548,-316.8,-12.6096
15.2547,-316.8,-12.6056
15.3543,-316.8,-12.6037
15.455,-316.8,-12.6092
15.5543,-316.8,-12.605
15.6546,-316.8,-12.6015
15.7548,-316.8,-12.5963
15.855,-316.8,-12.5942
15.9554,-316.8,-12.589
16.0559,-316.8,-12.5866
16.156,-316.8,-12.588
16.2553,-316.8,-12.588
16.3562,-316.8,-12.5841
16.4553,-316.8,-12.5754
16.5558,-316.8,-12.5811
16.6555,-316.8,-12.5805
16.7558,-316.8,-12.5765
16.8558,-316.8,-12.5734
16.9554,-316.8,-12.5791
17.0554,-316.8,-12.5756
17.1561,-316.8,-12.571
17.2562,-316.8,-12.5676
17.3555,-316.8,-12.5682
17.4554,-316.8,-12.5589
17.5557,-316.8,-12.5631
17.6558,-316.8,-12.5514
17.7552,-316.8,-12.5572
17.8554,-316.8,-12.557
17.9557,-316.8,-12.5532
18.0553,-316.8,-12.5566
18.1558,-316.8,-12.5532
18.256,-316.8,-12.5504
18.3558,-316.8,-12.5435
18.4567,-316.8,-12.5467
18.5571,-316.8,-12.5441
18.6567,-316.8,-12.5475
18.7565,-316.8,-12.5409
18.8571,-316.8,-12.5467
18.9581,-316.8,-12.5401
19.0579,-316.8,-12.539
19.1573,-316.8,-12.5417
19.2573,-316.8,-12.5433
19.3583,-316.8,-12.5417
19.4584,-316.8,-12.5403
19.5602,-316.8,-12.5399
19.6599,-316.8,-12.5326
19.7602,-316.8,-12.5318
19.8596,-316.8,-12.5291
19.9596,-316.8,-12.5273
20.0596,-316.8,-12.5291
20.1593,-316.8,-12.536
20.2605,-316.8,-12.5289
20.3603,-316.8,-12.5259
20.4616,-316.8,-12.5225
20.5618,-316.8,-12.5267
20.6615,-316.8,-12.531
20.7617,-316.8,-12.518
20.8614,-316.8,-12.5277
20.9621,-316.8,-12.5158
21.0627,-316.8,-12.5166
21.1628,-316.8,-12.5136
21.2637,-316.8,-12.5132
21.3645,-316.8,-12.5126
21.4649,-316.8,-12.5168
21.5651,-316.8,-12.5049
21.6648,-316.8,-12.5045
21.7644,-316.8,-12.5067
21.8652,-316.8,-12.5079
21.9655,-316.8,-12.5118
22.0665,-316.8,-12.5081
22.1664,-316.8,-12.5035
22.2665,-316.8,-12.5047
22.3668,-316.8,-12.5043
22.467,-316.8,-12.4992
22.5671,-316.8,-12.4982
22.6671,-316.8,-12.4988
22.767,-316.8,-12.4883
22.8675,-316.8,-12.4934
22.9682,-316.8,-12.4964
23.068,-316.8,-12.4946
23.1675,-316.8,-12.4966
23.2678,-316.8,-12.4881
23.3682,-316.8,-12.496
23.4684,-316.8,-12.4905
23.5695,-316.8,-12.4962
23.6698,-316.8,-12.4863
23.7697,-316.8,-12.4857
23.8695,-316.8,-12.4887
23.9696,-316.8,-12.4867
24.0696,-316.8,-12.4798
24.1697,-316.8,-12.4867
24.2694,-316.8,-12.4814
24.3696,-316.8,-12.4808
24.4695,-316.8,-12.4748
24.5696,-316.8,-12.4772
24.6696,-316.8,-12.478
24.7696,-316.8,-12.4766
24.871,-316.8,-12.4677
24.9707,-316.8,-12.4752
25.0705,-316.8,-12.4772
25.1714,-316.8,-12.4784
25.2715,-316.8,-12.4705
25.372,-316.8,-12.4693
25.4718,-316.8,-12.4691
25.5716,-316.8,-12.4646
25.6719,-316.8,-12.4644
25.7714,-316.8,-12.4618
25.8725,-316.8,-12.4695
25.9741,-316.8,-12.4634
26.0736,-316.8,-12.4616
26.1737,-316.8,-12.4642
26.2745,-316.8,-12.4626
26.3744,-316.8,-12.4622
26.4756,-316.8,-12.4602
26.5764,-316.8,-12.4638
26.6765,-316.8,-12.4679
26.7764,-316.8,-12.4602
26.8771,-316.8,-12.4594
26.9763,-316.8,-12.4582
27.0764,-316.8,-12.4588
27.1764,-316.8,-12.4525
27.278,-316.8,-12.4525
27.3774,-316.8,-12.4509
27.4794,-316.8,-12.4592
27.5791,-316.8,-12.4537
27.6791,-316.8,-12.4537
27.7785,-316.8,-12.4501
27.8786,-316.8,-12.4489
27.9791,-316.8,-12.4499
28.0788,-316.8,-12.4485
28.1803,-316.8,-12.4495
28.2796,-316.8,-12.4491
28.3796,-316.8,-12.4507
28.4794,-316.8,-12.4458
28.5794,-316.8,-12.4442
28.6796,-316.8,-12.4471
28.7794,-316.8,-12.439
28.8794,-316.8,-12.4428
28.9796,-316.8,-12.4373
29.0796,-316.8,-12.4422
29.1797,-316.8,-12.4347
29.2794,-316.8,-12.4404
29.3796,-316.8,-12.4369
29.4796,-316.8,-12.4339
29.5796,-316.8,-12.4303
29.6795,-316.8,-12.4335
29.7796,-316.8,-12.4373
29.8796,-316.8,-12.4337
29.9796,-316.8,-12.4337
30.0795,-316.8,-12.4333
30.1811,-316.8,-12.4315
30.2808,-316.8,-12.4283
30.3806,-316.8,-12.4274
30.4823,-316.8,-12.4278
30.5817,-316.8,-12.4319
30.6819,-316.8,-12.4287
30.7816,-316.8,-12.4234
30.8815,-316.8,-12.4319
30.9818,-316.8,-12.4317
31.0814,-316.8,-12.4303
31.1817,-316.8,-12.4272
31.2831,-316.8,-12.4222
31.3826,-316.8,-12.423
31.4833,-316.8,-12.4262
31.5833,-316.8,-12.4198
31.6827,-316.8,-12.4244
31.7837,-316.8,-12.4181
31.8844,-316.8,-12.428
31.9851,-316.8,-12.4226
32.0844,-316.8,-12.4256
32.185,-316.8,-12.4222
32.2847,-316.8,-12.4133
32.3853,-316.8,-12.4192
32.4846,-316.8,-12.4137
32.5852,-316.8,-12.4187
32.6844,-316.8,-12.4153
32.7846,-316.8,-12.4109
32.8873,-316.8,-12.4135
32.987,-316.8,-12.408
33.0869,-316.8,-12.4107
33.1869,-316.8,-12.4101
33.2865,-316.8,-12.4101
33.3866,-316.8,-12.4072
33.4871,-316.8,-12.4068
33.5864,-316.8,-12.4072
33.687,-316.8,-12.4058
33.7869,-316.8,-12.4074
33.887,-316.8,-12.4096
33.9864,-316.8,-12.409
34.0877,-316.8,-12.4117
34.1873,-316.8,-12.4022
34.2865,-316.8,-12.4052
34.3865,-316.8,-12.4072
34.4873,-316.8,-12.409
34.5871,-316.8,-12.4046
34.6887,-316.8,-12.405
34.7875,-316.8,-12.4078
34.8883,-316.8,-12.4022
34.9881,-316.8,-12.4042
35.0874,-316.8,-12.4099
35.1874,-316.8,-12.4012
35.2875,-316.8,-12.4131
35.3883,-316.8,-12.4018
35.4888,-316.8,-12.3991
35.589,-316.8,-12.4048
35.6887,-316.8,-12.4048
35.7885,-316.8,-12.3993
35.8884,-316.8,-12.409
35.9891,-316.8,-12.403
36.09,-316.8,-12.4022
36.1898,-316.8,-12.4084
36.2894,-316.8,-12.3999
36.3899,-316.8,-12.3917
36.4897,-316.8,-12.3919
36.5911,-316.8,-12.3935
36.691,-316.8,-12.3913
36.7912,-316.8,-12.3886
36.8923,-316.8,-12.3915
36.9918,-316.8,-12.3919
37.0921,-316.8,-12.3929
37.1922,-316.8,-12.3921
37.2919,-316.8,-12.3965
37.3921,-316.8,-12.3884
37.4931,-316.8,-12.3896
37.5933,-316.8,-12.3888
37.6941,-316.8,-12.387
37.7943,-316.8,-12.3872
37.8935,-316.8,-12.3866
37.994,-316.8,-12.3817
38.0941,-316.8,-12.3838
38.1944,-316.8,-12.385
38.2956,-316.8,-12.383
38.396,-316.8,-12.3848
38.4966,-316.8,-12.3852
38.5964,-316.8,-12.3799
38.6969,-316.8,-12.3793
38.7975,-316.8,-12.3757
38.8981,-316.8,-12.3761
38.9974,-316.8,-12.3797
39.098,-316.8,-12.3819
39.1977,-316.8,-12.3822
39.2992,-316.8,-12.3747
39.3994,-316.8,-12.3801
39.5006,-316.8,-12.3747
39.6015,-316.8,-12.3773
39.7028,-316.8,-12.3769
39.802,-316.8,-12.3751
39.9017,-316.8,-12.3809
40.0014,-316.8,-12.3761
40.1027,-316.8,-12.3789
40.2032,-316.8,-12.3714
40.3031,-316.8,-12.3718
40.4025,-316.8,-12.3696
40.5026,-316.8,-12.3702
40.6032,-316.8,-12.3706
40.7029,-316.8,-12.3749
40.8046,-316.8,-12.3694
40.9049,-316.8,-12.3765
41.0047,-316.8,-12.3664
41.1054,-316.8,-12.3668
41.2044,-316.8,-12.3642
41.305,-316.8,-12.365
41.4055,-316.8,-12.3674
41.5055,-316.8,-12.3633
41.6057,-316.8,-12.3631
41.7066,-316.8,-12.3613
41.807,-316.8,-12.3666
41.9065,-316.8,-12.368
42.0075,-316.8,-12.3621
42.1083,-316.8,-12.3607
42.2076,-316.8,-12.3627
42.3085,-316.8,-12.3609
42.4091,-316.8,-12.3583
42.5092,-316.8,-12.3601
42.6086,-316.8,-12.3629
42.7091,-316.8,-12.3642
42.809,-316.8,-12.3617
42.9093,-316.8,-12.3603
43.0094,-316.8,-12.3587
43.1089,-316.8,-12.3611
43.2092,-316.8,-12.3587
43.3093,-316.8,-12.3577
43.4092,-316.8,-12.3633
43.5085,-316.8,-12.3579
43.6093,-316.8,-12.3565
43.709,-316.8,-12.3502
43.8092,-316.8,-12.3557
43.9094,-316.8,-12.3605
44.0089,-316.8,-12.3615
44.1093,-316.8,-12.3609
44.209,-316.8,-12.3597
44.3091,-316.8,-12.3591
44.41,-316.8,-12.3577
44.5096,-316.8,-12.354
44.6098,-316.8,-12.3579
44.7098,-316.8,-12.3545
44.8109,-316.8,-12.3583
44.9112,-316.8,-12.3538
45.0119,-316.8,-12.3524
45.1116,-316.8,-12.3536
45.2132,-316.8,-12.3547
45.3132,-316.8,-12.3516
45.4127,-316.8,-12.3567
45.5126,-316.8,-12.3575
45.6131,-316.8,-12.3545
45.7133,-316.8,-12.3494
45.8127,-316.8,-12.354
45.9139,-316.8,-12.3549
46.0138,-316.8,-12.3466
46.1153,-316.8,-12.349
46.2145,-316.8,-12.3427
46.3152,-316.8,-12.3425
46.4164,-316.8,-12.3456
46.5172,-316.8,-12.3441
46.6166,-316.8,-12.3437
46.7169,-316.8,-12.3429
46.8165,-316.8,-12.3466
46.9166,-316.8,-12.3415
47.0181,-316.8,-12.3417
47.118,-316.8,-12.3409
47.2184,-316.8,-12.3478
47.3175,-316.8,-12.3443
47.4175,-316.8,-12.3413
47.5175,-316.8,-12.3445
47.6177,-316.8,-12.3387
47.7178,-316.8,-12.3375
47.818,-316.8,-12.3328
47.9182,-316.8,-12.3367
48.0186,-316.8,-12.3326
48.1188,-316.8,-12.3431
48.2195,-316.8,-12.3405
48.3196,-316.8,-12.3371
48.4198,-316.8,-12.3391
48.5198,-316.8,-12.3365
48.6199,-316.8,-12.3371
48.7196,-316.8,-12.3492
48.8198,-316.8,-12.3504
48.9196,-316.8,-12.3462
49.0202,-316.8,-12.3405
49.1195,-316.8,-12.3352
49.2198,-316.8,-12.332
49.3199,-316.8,-12.3365
49.4195,-316.8,-12.3348
49.5198,-316.8,-12.3304
49.6199,-316.8,-12.3375
49.7199,-316.8,-12.3419
49.8212,-316.8,-12.3312
49.921,-316.8,-12.3399
50.0214,-316.8,-12.3334
50.1214,-316.8,-12.3322
50.2207,-316.8,-12.3322
50.3219,-316.8,-12.3237
50.4222,-316.8,-12.3227
50.5219,-316.8,-12.331
50.6218,-316.8,-12.3261
50.722,-316.8,-12.3302
50.8216,-316.8,-12.3298
50.9215,-316.8,-12.3249
51.022,-316.8,-12.3219
51.1223,-316.8,-12.3292
51.2222,-316.8,-12.3286
51.3216,-316.8,-12.3259
51.4215,-316.8,-12.3241
51.5218,-316.8,-12.3255
51.6235,-316.8,-12.3231
51.7232,-316.8,-12.3185
51.8229,-316.8,-12.3241
51.9226,-316.8,-12.3225
52.0233,-316.8,-12.3294
52.1236,-316.8,-12.3217
52.2235,-316.8,-12.3235
52.3239,-316.8,-12.3211
52.4246,-316.8,-12.3239
52.5255,-316.8,-12.3134
52.6246,-316.8,-12.3215
52.7246,-316.8,-12.3263
52.825,-316.8,-12.3266
52.9251,-316.8,-12.3211
53.025,-316.8,-12.327
53.1246,-316.8,-12.313
53.225,-316.8,-12.3227
53.3251,-316.8,-12.313
53.4265,-316.8,-12.3122
53.5275,-316.8,-12.317
53.6272,-316.8,-12.3152
53.7271,-316.8,-12.316
53.828,-316.8,-12.3175
53.928,-316.8,-12.316
54.0283,-316.8,-12.3164
54.1277,-316.8,-12.3156
54.2278,-316.8,-12.3162
54.3276,-316.8,-12.3136
54.4284,-316.8,-12.317
54.5277,-316.8,-12.3108
54.6284,-316.8,-12.3148
54.7282,-316.8,-12.3138
54.8283,-316.8,-12.3138
54.9278,-316.8,-12.3071
55.0283,-316.8,-12.3098
55.128,-316.8,-12.3136
55.2284,-316.8,-12.3122
55.3286,-316.8,-12.3152
55.4296,-316.8,-12.3073
55.5297,-316.8,-12.3088
55.6296,-316.8,-12.3067
55.7296,-316.8,-12.3082
55.8299,-316.8,-12.3102
55.9299,-316.8,-12.3043
56.0297,-316.8,-12.3142
56.1299,-316.8,-12.3132
56.2299,-316.8,-12.3106
56.3299,-316.8,-12.309
56.4298,-316.8,-12.3051
56.5299,-316.8,-12.31
56.6297,-316.8,-12.3102
56.7297,-316.8,-12.3059
56.83,-316.8,-12.3075
56.9297,-316.8,-12.3023
57.03,-316.8,-12.3031
57.1308,-316.8,-12.3063
57.2316,-316.8,-12.3041
57.3322,-316.8,-12.3063
57.4324,-316.8,-12.3005
57.5321,-316.8,-12.3037
57.6323,-316.8,-12.3023
57.732,-316.8,-12.3043
57.8336,-316.8,-12.3037
57.934,-316.8,-12.3077
58.0345,-316.8,-12.3092
58.1351,-316.8,-12.3088
58.2346,-316.8,-12.3047
58.3356,-316.8,-12.2989
58.4358,-316.8,-12.31
58.5368,-316.8,-12.2986
58.6372,-316.8,-12.3045
58.7373,-316.8,-12.2984
58.8376,-316.8,-12.3067
58.9383,-316.8,-12.3045
59.0384,-316.8,-12.3053
59.1396,-316.8,-12.2997
59.2397,-316.8,-12.3049
59.3399,-316.8,-12.2997
59.4397,-316.8,-12.3041
59.5397,-316.8,-12.296
59.6413,-316.8,-12.3029
59.741,-316.8,-12.2999
59.8407,-316.8,-12.2966
59.9415,-316.8,-12.2974
60.0417,-316.8,-12.2997
60.1421,-316.8,-12.2997
60.2424,-316.8,-12.2991
60.3427,-316.8,-12.2928
60.4426,-316.8,-12.2942
60.5435,-316.8,-12.2982
60.6428,-316.8,-12.2991
60.7443,-316.8,-12.291
60.8445,-316.8,-12.3015
60.9441,-316.8,-12.2956
61.0449,-316.8,-12.2912
61.145,-316.8,-12.291
61.2455,-316.8,-12.2867
61.3451,-316.8,-12.2908
61.4449,-316.8,-12.2932
61.5452,-316.8,-12.2908
61.6447,-316.8,-12.2908
61.7464,-316.8,-12.2877
61.8463,-316.8,-12.2898
61.9463,-316.8,-12.2906
62.0463,-316.8,-12.2896
62.1461,-316.8,-12.2871
62.2462,-316.8,-12.2865
62.3459,-316.8,-12.2902
62.446,-316.8,-12.2855
62.5469,-316.8,-12.2881
62.6482,-316.8,-12.2893
62.7478,-316.8,-12.2875
62.8488,-316.8,-12.2877
62.9495,-316.8,-12.2908
63.0493,-316.8,-12.2902
63.1495,-316.8,-12.2847
63.2487,-316.8,-12.2891
63.3488,-316.8,-12.2906
63.4496,-316.8,-12.2881
63.5495,-316.8,-12.2855
63.6505,-316.8,-12.2803
63.7499,-316.8,-12.2861
63.8499,-316.8,-12.2916
63.9496,-316.8,-12.2813
64.0498,-316.8,-12.2813
64.1505,-316.8,-12.2833
64.2499,-316.8,-12.2811
64.3498,-316.8,-12.2819
64.45,-316.8,-12.2829
64.55,-316.8,-12.28
64.6497,-316.8,-12.2788
64.7497,-316.8,-12.2813
64.8499,-316.8,-12.2782
64.9508,-316.8,-12.2803
65.0517,-316.8,-12.2782
65.1524,-316.8,-12.2762
65.2517,-316.8,-12.2835
65.3521,-316.8,-12.2823
65.4534,-316.8,-12.28
65.5536,-316.8,-12.2839
65.6527,-316.8,-12.2825
65.7527,-316.8,-12.2803
65.8531,-316.8,-12.2744
65.9545,-316.8,-12.2798
66.0546,-316.8,-12.276
66.1537,-316.8,-12.2734
66.254,-316.8,-12.2738
66.3556,-316.8,-12.272
66.4557,-316.8,-12.2724
66.5556,-316.8,-12.2728
66.6559,-316.8,-12.2699
66.7563,-316.8,-12.2712
66.8557,-316.8,-12.2726
66.9559,-316.8,-12.2645
67.0558,-316.8,-12.274
67.1577,-316.8,-12.2718
67.2576,-316.8,-12.2722
67.3577,-316.8,-12.272
67.4578,-316.8,-12.2683
67.5586,-316.8,-12.2695
67.6583,-316.8,-12.2659
67.7582,-316.8,-12.2689
67.8581,-316.8,-12.2669
67.9585,-316.8,-12.2673
68.0582,-316.8,-12.2578
68.1584,-316.8,-12.2623
68.2596,-316.8,-12.2608
68.3593,-316.8,-12.2675
68.4605,-316.8,-12.2627
68.5614,-316.8,-12.2592
68.6607,-316.8,-12.2701
68.7618,-316.8,-12.2689
68.8617,-316.8,-12.2645
68.9618,-316.8,-12.2655
69.0624,-316.8,-12.2705
69.1623,-316.8,-12.2683
69.2617,-316.8,-12.2669
69.3636,-316.8,-12.2663
69.4636,-316.8,-12.2649
69.5634,-316.8,-12.2669
69.6629,-316.8,-12.2641
69.7631,-316.8,-12.2655
69.863,-316.8,-12.2629
69.9631,-316.8,-12.2659
70.0632,-316.8,-12.2671
70.1636,-316.8,-12.2621
70.2645,-316.8,-12.2653
70.3648,-316.8,-12.2647
70.4657,-316.8,-12.2695
70.5677,-316.8,-12.2667
70.6678,-316.8,-12.2598
70.7689,-316.8,-12.2641
70.8689,-316.8,-12.2598
70.9698,-316.8,-12.2616
71.07,-316.8,-12.2594
71.1705,-316.8,-12.2582
71.27,-316.8,-12.261
71.3701,-316.8,-12.253
71.4706,-316.8,-12.256
71.5701,-316.8,-12.2562
71.67,-316.8,-12.2689
71.7698,-316.8,-12.2519
71.8702,-316.8,-12.2558
71.9706,-316.8,-12.2554
72.0701,-316.8,-12.2548
72.1699,-316.8,-12.2548
72.27,-316.8,-12.2574
72.37,-316.8,-12.2574
72.4716,-316.8,-12.2534
72.5713,-316.8,-12.2566
72.6717,-316.8,-12.253
72.7716,-316.8,-12.2481
72.8713,-316.8,-12.2495
72.971,-316.8,-12.2475
73.0713,-316.8,-12.259
73.1712,-316.8,-12.2507
73.2709,-316.8,-12.2501
73.3707,-316.8,-12.2566
73.4725,-316.8,-12.256
73.5718,-316.8,-12.2572
73.6737,-316.8,-12.2564
73.7735,-316.8,-12.2526
73.8728,-316.8,-12.2596
73.973,-316.8,-12.2584
74.0736,-316.8,-12.2511
74.1736,-316.8,-12.2538
74.2728,-316.8,-12.2509
74.3735,-316.8,-12.2418
74.4736,-316.8,-12.2483
74.5735,-316.8,-12.2588
74.6728,-316.8,-12.2544
74.776,-316.8,-12.2544
74.8754,-316.8,-12.255
74.9749,-316.8,-12.2485
75.0748,-316.8,-12.2534
75.1749,-316.8,-12.2536
75.2752,-316.8,-12.2526
75.376,-316.8,-12.2507
75.4758,-316.8,-12.2505
75.5771,-316.8,-12.2493
75.6777,-316.8,-12.2497
75.7792,-316.8,-12.2463
75.8793,-316.8,-12.243
75.9796,-316.8,-12.2487
76.0791,-316.8,-12.2509
76.179,-316.8,-12.2513
76.2793,-316.8,-12.2469
76.3797,-316.8,-12.2519
76.4794,-316.8,-12.2424
76.5792,-316.8,-12.2493
76.6793,-316.8,-12.2477
76.7792,-316.8,-12.2414
76.8796,-316.8,-12.2455
76.9794,-316.8,-12.242
77.0795,-316.8,-12.2483
77.1795,-316.8,-12.2538
77.2788,-316.8,-12.2477
77.3788,-316.8,-12.2465
77.4795,-316.8,-12.2503
77.5791,-316.8,-12.24
77.6789,-316.8,-12.253
77.779,-316.8,-12.2455
77.8792,-316.8,-12.2455
77.9792,-316.8,-12.2394
78.0788,-316.8,-12.2374
78.1795,-316.8,-12.238
78.2805,-316.8,-12.2398
78.3799,-316.8,-12.2451
78.4801,-316.8,-12.2449
78.5801,-316.8,-12.2392
78.6818,-316.8,-12.24
78.7821,-316.8,-12.2376
78.882,-316.8,-12.2354
78.9826,-316.8,-12.2404
79.0818,-316.8,-12.2433
79.1821,-316.8,-12.2388
79.2818,-316.8,-12.2398
79.383,-316.8,-12.2398
79.4822,-316.8,-12.2412
79.5825,-316.8,-12.2394
79.6819,-316.8,-12.2339
79.7818,-316.8,-12.2376
79.8821,-316.8,-12.2386
79.9821,-316.8,-12.2382
80.0829,-316.8,-12.2337
80.1845,-316.8,-12.2331
80.2844,-316.8,-12.236
80.384,-316.8,-12.2319
80.4855,-316.8,-12.2366
80.5852,-316.8,-12.2384
80.6852,-316.8,-12.2317
80.7848,-316.8,-12.2228
80.8859,-316.8,-12.2285
80.9869,-316.8,-12.2226
81.0869,-316.8,-12.2307
81.1872,-316.8,-12.2257
81.2869,-316.8,-12.2273
81.3878,-316.8,-12.2319
81.4879,-316.8,-12.2261
81.589,-316.8,-12.2269
81.6892,-316.8,-12.2313
81.7889,-316.8,-12.2346
81.8889,-316.8,-12.242
81.9917,-316.8,-12.2356
82.0918,-316.8,-12.2257
82.1918,-316.8,-12.2317
82.2919,-316.8,-12.2321
82.3925,-316.8,-12.2299
82.4925,-316.8,-12.2295
82.5937,-316.8,-12.2295
82.6946,-316.8,-12.2244
82.794,-316.8,-12.2275
82.8945,-316.8,-12.2263
82.9946,-316.8,-12.2285
83.0947,-316.8,-12.2305
83.1939,-316.8,-12.2208
83.2946,-316.8,-12.2246
83.394,-316.8,-12.2261
83.4958,-316.8,-12.2249
83.5949,-316.8,-12.2277
83.6953,-316.8,-12.2271
83.7955,-316.8,-12.2242
83.8955,-316.8,-12.2232
83.9949,-316.8,-12.2156
84.0948,-316.8,-12.2279
84.1963,-316.8,-12.2253
84.296,-316.8,-12.2232
84.3969,-316.8,-12.2178
84.4973,-316.8,-12.2232
84.5984,-316.8,-12.2275
84.6994,-316.8,-12.2214
84.8003,-316.8,-12.2267
84.9004,-316.8,-12.223
85.0013,-316.8,-12.223
85.1023,-316.8,-12.2151
85.2025,-316.8,-12.2218
85.3031,-316.8,-12.2342
85.4041,-316.8,-12.2204
85.5045,-316.8,-12.2236
85.6046,-316.8,-12.219
85.7043,-316.8,-12.2208
85.8051,-316.8,-12.2214
85.9049,-316.8,-12.2226
86.0049,-316.8,-12.2226
86.105,-316.8,-12.2208
86.2054,-316.8,-12.2196
86.3051,-316.8,-12.219
86.4061,-316.8,-12.2234
86.5059,-316.8,-12.2214
86.6064,-316.8,-12.2244
86.7065,-316.8,-12.2178
86.806,-316.8,-12.2184
86.9066,-316.8,-12.2208
87.0062,-316.8,-12.2196
87.1063,-316.8,-12.2232
87.2062,-316.8,-12.2253
87.3061,-316.8,-12.2208
87.4063,-316.8,-12.2236
87.5073,-316.8,-12.2198
87.6079,-316.8,-12.2202
87.708,-316.8,-12.221
87.808,-316.8,-12.2206
87.9094,-316.8,-12.2226
88.0099,-316.8,-12.219
88.1101,-316.8,-12.2184
88.2112,-316.8,-12.2123
88.3129,-316.8,-12.2143
88.4134,-316.8,-12.2194
88.5129,-316.8,-12.2168
88.6129,-316.8,-12.2174
88.7131,-316.8,-12.2172
88.8144,-316.8,-12.2172
88.9141,-316.8,-12.2153
89.0147,-316.8,-12.218
89.1139,-316.8,-12.2196
89.2141,-316.8,-12.2168
89.3139,-316.8,-12.2184
89.4146,-316.8,-12.2164
89.5139,-316.8,-12.2164
89.6149,-316.8,-12.2141
89.714,-316.8,-12.2153
89.814,-316.8,-12.222
89.9147,-316.8,-12.2166
90.0141,-316.8,-12.219
90.1139,-316.8,-12.2206
90.2148,-316.8,-12.2178
90.3144,-316.8,-12.2123
90.4144,-316.8,-12.2107
90.5157,-316.8,-12.2127
90.6157,-316.8,-12.2127
90.7151,-316.8,-12.2143
90.8166,-316.8,-12.2162
90.9168,-316.8,-12.2129
91.0165,-316.8,-12.2109
91.117,-316.8,-12.2042
91.217,-316.8,-12.2095
91.3178,-316.8,-12.2097
91.4175,-316.8,-12.2107
91.5176,-316.8,-12.2052
91.6175,-316.8,-12.2058
91.7175,-316.8,-12.2105
91.8175,-316.8,-12.2101
91.9178,-316.8,-12.2097
92.018,-316.8,-12.2101
92.1188,-316.8,-12.2067
92.2186,-316.8,-12.2103
92.3184,-316.8,-12.2103
92.4191,-316.8,-12.2099
92.52,-316.8,-12.2091
92.6209,-316.8,-12.2164
92.7216,-316.8,-12.2028
92.8223,-316.8,-12.1994
92.9223,-316.8,-12.2004
93.0226,-316.8,-12.2006
93.1233,-316.8,-12.2044
93.2237,-316.8,-12.2071
93.3245,-316.8,-12.2069
93.4242,-316.8,-12.204
93.5248,-316.8,-12.2054
93.625,-316.8,-12.2091
93.7262,-316.8,-12.2008
93.8261,-316.8,-12.2048
93.9266,-316.8,-12.2012
94.0267,-316.8,-12.203
94.1264,-316.8,-12.2052
94.2278,-316.8,-12.2075
94.3288,-316.8,-12.201
94.4279,-316.8,-12.2056
94.5287,-316.8,-12.2081
94.6289,-316.8,-12.2093
94.728,-316.8,-12.203
94.8282,-316.8,-12.2101
94.9287,-316.8,-12.2024
95.03,-316.8,-12.2077
95.1302,-316.8,-12.1996
95.2299,-316.8,-12.2079
95.3308,-316.8,-12.2069
95.4302,-316.8,-12.2034
95.5302,-316.8,-12.2046
95.63,-316.8,-12.2081
95.73,-316.8,-12.2063
95.8311,-316.8,-12.204
95.932,-316.8,-12.2069
96.0339,-316.8,-12.2022
96.1331,-316.8,-12.1949
96.2345,-316.8,-12.1982
96.3354,-316.8,-12.203
96.4351,-316.8,-12.1986
96.5361,-316.8,-12.2004
96.6371,-316.8,-12.1972
96.737,-316.8,-12.2
96.8372,-316.8,-12.2008
96.9375,-316.8,-12.1994
97.0377,-316.8,-12.1976
97.137,-316.8,-12.2042
97.2384,-316.8,-12.1996
97.338,-316.8,-12.1931
97.4381,-316.8,-12.1986
97.5379,-316.8,-12.199
97.6399,-316.8,-12.1974
97.7396,-316.8,-12.1984
97.8393,-316.8,-12.1945
97.939,-316.8,-12.1988
98.0397,-316.8,-12.1982
98.1394,-316.8,-12.2054
98.2391,-316.8,-12.1978
98.3391,-316.8,-12.1982
98.4397,-316.8,-12.1996
98.539,-316.8,-12.1988
98.6391,-316.8,-12.1953
98.74,-316.8,-12.1913
98.8403,-316.8,-12.1915
98.9403,-316.8,-12.1881
99.0418,-316.8,-12.1905
99.1424,-316.8,-12.1967
99.2427,-316.8,-12.1899
99.3433,-316.8,-12.1901
99.443,-316.8,-12.1929
99.5438,-316.642,-12.1911
99.6645,-316.226,-12.1933
99.7649,-315.576,-11.9703
99.8649,-314.892,-9.54002
99.9648,-314.243,-7.00501
100.0641,-313.559,-5.00903
100.164,-312.91,-3.35009
100.2649,-312.226,-1.992
100.3646,-311.577,-0.858952
100.4657,-310.893,0.0581648
100.565,-310.244,0.825866
100.6659,-309.56,1.44718
100.7651,-308.911,1.95588
100.8651,-308.227,2.35197
100.965,-307.577,2.67668
101.0651,-306.894,2.94336
101.1652,-306.244,3.14737
101.2667,-305.561,3.30608
101.3679,-304.877,3.42133
101.4671,-304.228,3.52505
101.567,-303.544,3.58146
101.6675,-302.895,3.62978
101.768,-302.211,3.65203
101.8685,-301.528,3.67285
101.9684,-300.878,3.68296
102.0682,-300.195,3.68862
102.1688,-299.545,3.67932
102.2687,-298.862,3.66638
102.3681,-298.212,3.64495
102.4693,-297.529,3.62129
102.5692,-296.879,3.59824
102.6697,-296.195,3.57984
102.7691,-295.546,3.5665
102.8699,-294.863,3.53031
102.9696,-294.213,3.50221
103.0691,-293.53,3.47572
103.1691,-292.88,3.45368
103.2695,-292.194,3.42578
103.3696,-291.511,3.40516
103.47,-290.861,3.38554
103.5697,-290.211,3.35643
103.6697,-289.528,3.34329
103.7707,-288.879,3.31619
103.8702,-288.195,3.29739
103.9715,-287.511,3.28506
104.0716,-286.862,3.26868
104.172,-286.179,3.24604
104.2724,-285.529,3.2337
104.3721,-284.846,3.22016
104.4724,-284.162,3.2056
104.5723,-283.513,3.19286
104.6729,-282.863,3.17507
104.7727,-282.179,3.16375
104.872,-281.53,3.1502
104.9724,-280.847,3.1413
105.0724,-280.197,3.1318
105.1735,-279.513,3.11805
105.2735,-278.83,3.12412
105.3736,-278.18,3.10531
105.4741,-277.497,3.10612
105.5742,-276.813,3.09318
105.6741,-276.164,3.08853
105.7743,-275.515,3.08166
105.8744,-274.831,3.07438
105.9741,-274.147,3.06366
106.0751,-273.498,3.05558
106.175,-272.849,3.05881
106.276,-272.162,3.05012
106.3755,-271.479,3.05719
106.4762,-270.829,3.05922
106.5768,-270.146,3.05861
106.6763,-269.497,3.06103
106.776,-268.813,3.07478
106.8779,-268.163,3.07438
106.9776,-267.48,3.10087
107.0792,-266.837,3.10734
107.1798,-266.799,3.12108
107.2794,-266.799,3.10956
107.381,-266.799,3.14494
107.4821,-266.799,3.13847
107.5826,-266.799,3.13503
107.6831,-266.799,3.13847
107.7842,-266.8,3.14272
107.8853,-266.8,3.13908
107.9865,-266.8,3.14332
108.0878,-266.8,3.14413
108.1873,-266.8,3.14555
108.288,-266.8,3.14009
108.3874,-266.8,3.13402
108.4879,-266.8,3.13706
108.5885,-266.8,3.14009
108.6894,-266.8,3.13766
108.791,-266.8,3.132
108.8904,-266.8,3.13726
108.9903,-266.8,3.12937
109.0901,-266.8,3.12796
109.191,-266.8,3.13625
109.2901,-266.8,3.14029
109.3903,-266.8,3.14696
109.4909,-266.8,3.13908