File: Tinius-Olsen_Levitation_force/Preprocessed_measures/20231204_1545YBCOs1_sl9_5.txt.csv
Time(s),Displacement(mm),Force(N)
0.0,-265.774,3.21631
0.2217,-266.871,3.20762
0.4214,-268.204,3.17891
0.6218,-269.537,3.13322
0.8216,-270.871,3.08712
1.0229,-272.206,3.05396
1.2242,-273.539,3.01231
1.4239,-274.872,3.00543
1.6261,-276.24,2.99512
1.8263,-277.573,2.98926
2.0273,-278.905,2.98441
2.2269,-280.238,2.9838
2.4278,-281.571,2.97794
2.6282,-282.904,2.98036
2.8284,-284.24,2.97935
3.0284,-285.575,2.97571
3.2289,-286.908,2.9747
3.4292,-288.241,2.96884
3.6292,-289.574,2.9656
3.8293,-290.91,2.95105
4.0309,-292.243,2.93568
4.2311,-293.576,2.91829
4.4316,-294.943,2.88574
4.6328,-296.276,2.84995
4.8336,-297.608,2.79455
5.0353,-298.976,2.71509
5.2356,-300.275,2.63503
5.4361,-301.608,2.52969
5.6359,-302.941,2.41647
5.8358,-304.274,2.26624
6.0356,-305.641,2.11036
6.2369,-306.974,1.91646
6.4372,-308.307,1.67889
6.6382,-309.64,1.4209
6.838,-310.973,1.10145
7.039,-312.306,0.71527
7.2385,-313.639,0.249029
7.4386,-314.972,-0.388667
7.6396,-315.641,-1.27889
7.8402,-315.641,-1.07549
8.0399,-315.64,-0.984914
8.2398,-315.64,-0.925269
8.4402,-315.64,-0.875531
8.6402,-315.64,-0.852684
8.8406,-315.64,-0.826198
9.0411,-315.64,-0.800318
9.2404,-315.64,-0.783132
9.4407,-315.64,-0.760487
9.6407,-315.64,-0.758263
9.8407,-315.64,-0.740673
10.0406,-315.64,-0.723487
10.2407,-315.64,-0.717624
10.4406,-315.64,-0.711558
10.6422,-315.64,-0.69882
10.8433,-315.64,-0.688307
11.044,-315.64,-0.683859
11.2463,-315.64,-0.674962
11.4465,-315.64,-0.673547
11.6475,-315.64,-0.660607
11.849,-315.64,-0.658585
12.0495,-315.64,-0.658181
12.2507,-315.64,-0.646656
12.4508,-315.64,-0.644635
12.6508,-315.64,-0.635536
12.8527,-315.64,-0.624618
13.0546,-315.64,-0.625225
13.2553,-315.64,-0.62017
13.4546,-315.64,-0.615924
13.6546,-315.64,-0.610263
13.8559,-315.64,-0.615318
14.0565,-315.64,-0.601973
14.2583,-315.64,-0.600154
14.4577,-315.64,-0.600356
14.6579,-315.64,-0.595908
14.8587,-315.64,-0.588629
15.0588,-315.64,-0.592066
15.2599,-315.64,-0.584383
15.4597,-315.64,-0.580137
15.6607,-315.64,-0.5767
15.8616,-315.64,-0.579328
16.0617,-315.64,-0.573465
16.2624,-315.64,-0.569219
16.4628,-315.64,-0.568815
16.6625,-315.64,-0.56558
16.8628,-315.64,-0.561738
17.0626,-315.64,-0.562749
17.2627,-315.64,-0.556481
17.4628,-315.64,-0.551224
17.6629,-315.64,-0.550011
17.8628,-315.64,-0.556886
18.0629,-315.64,-0.550618
18.2627,-315.64,-0.543946
18.4635,-315.64,-0.538689
18.6653,-315.64,-0.537071
18.8653,-315.64,-0.538891
19.0659,-315.64,-0.534645
19.2662,-315.64,-0.532017
19.4664,-315.64,-0.532017
19.6662,-315.64,-0.53141
19.8661,-315.64,-0.529995
20.0665,-315.64,-0.525345
20.2688,-315.64,-0.516651
20.4689,-315.64,-0.519481
20.6701,-315.64,-0.51564
20.8722,-315.64,-0.514831
21.0725,-315.64,-0.517662
21.2738,-315.64,-0.519683
21.4738,-315.64,-0.515033
21.6739,-315.64,-0.513618
21.8751,-315.64,-0.512405
22.0752,-315.64,-0.509979
22.275,-315.64,-0.50917
22.4761,-315.64,-0.504722
22.6759,-315.64,-0.502295
22.8765,-315.64,-0.501284
23.077,-315.64,-0.502498
23.277,-315.64,-0.500476
23.4766,-315.64,-0.498454
23.6767,-315.64,-0.501284
23.8791,-315.64,-0.488951
24.0802,-315.64,-0.490771
24.2802,-315.64,-0.49158
24.4803,-315.64,-0.489356
24.6812,-315.64,-0.490164
24.8808,-315.64,-0.490164
25.0809,-315.64,-0.484705
25.2824,-315.64,-0.482279
25.4825,-315.64,-0.48147
25.6831,-315.64,-0.48329
25.8832,-315.64,-0.474798
26.0841,-315.64,-0.47682
26.2847,-315.64,-0.475405
26.4864,-315.64,-0.478235
26.6859,-315.64,-0.481066
26.8857,-315.64,-0.479246
27.0878,-315.64,-0.474394
27.2885,-315.64,-0.478033
27.4885,-315.64,-0.474192
27.6891,-315.64,-0.46853
27.8886,-315.64,-0.467722
28.089,-315.64,-0.469339
28.2911,-315.64,-0.463273
28.4922,-315.64,-0.462869
28.6928,-315.64,-0.458421
28.8941,-315.64,-0.462263
29.0958,-315.64,-0.457814
29.2971,-315.64,-0.459432
29.4968,-315.64,-0.455995
29.6985,-315.64,-0.453569
29.8979,-315.64,-0.453569
30.0992,-315.64,-0.449727
30.3007,-315.64,-0.453569
30.5005,-315.64,-0.451547
30.702,-315.64,-0.449929
30.903,-315.64,-0.45559
31.1044,-315.64,-0.444066
31.3036,-315.64,-0.449323
31.5044,-315.64,-0.450334
31.7036,-315.64,-0.452355
31.9036,-315.64,-0.452558
32.104,-315.64,-0.446694
32.3051,-315.64,-0.452962
32.5057,-315.64,-0.450536
32.706,-315.64,-0.443661
32.9065,-315.64,-0.44265
33.1069,-315.64,-0.446896
33.3078,-315.64,-0.444066
33.5083,-315.64,-0.445077
33.7081,-315.64,-0.440831
33.9104,-315.64,-0.440629
34.1104,-315.64,-0.443055
34.3109,-315.64,-0.438202
34.5116,-315.64,-0.436383
34.7117,-315.64,-0.433552
34.9126,-315.64,-0.434563
35.113,-315.64,-0.436181
35.3137,-315.64,-0.431126
35.5141,-315.64,-0.427487
35.7156,-315.64,-0.4287
35.9153,-315.64,-0.426071
36.1152,-315.64,-0.427082
36.3155,-315.64,-0.4287
36.5168,-315.64,-0.433552
36.7183,-315.64,-0.4287
36.919,-315.64,-0.43335
37.119,-315.64,-0.426273
37.3196,-315.64,-0.425667
37.5213,-315.64,-0.424656
37.7225,-315.64,-0.423241
37.9216,-315.64,-0.421421
38.1232,-315.64,-0.422027
38.3255,-315.64,-0.421623
38.5263,-315.64,-0.425667
38.7282,-315.64,-0.421623
38.9283,-315.64,-0.419803
39.129,-315.64,-0.418793
39.3305,-315.64,-0.419399
39.5322,-315.64,-0.425465
39.7343,-315.64,-0.418186
39.9354,-315.64,-0.418995
40.136,-315.64,-0.413738
40.3364,-315.64,-0.413333
40.5363,-315.64,-0.414951
40.7363,-315.64,-0.419399
40.937,-315.64,-0.417579
41.1371,-315.64,-0.412525
41.3384,-315.64,-0.410907
41.5379,-315.64,-0.416568
41.7385,-315.64,-0.413738
41.9379,-315.64,-0.40929
42.1379,-315.64,-0.406864
42.3377,-315.64,-0.407672
42.5385,-315.64,-0.405853
42.7381,-315.64,-0.408885
42.9377,-315.64,-0.408481
43.1386,-315.64,-0.408683
43.3387,-315.64,-0.403629
43.5401,-315.64,-0.407672
43.7426,-315.64,-0.404639
43.9433,-315.64,-0.405246
44.144,-315.64,-0.411514
44.3441,-315.64,-0.405853
44.5445,-315.64,-0.403831
44.7453,-315.64,-0.401
44.945,-315.64,-0.40565
45.1456,-315.64,-0.397563
45.3453,-315.64,-0.403831
45.5456,-315.64,-0.403022
45.7451,-315.64,-0.401
45.9461,-315.64,-0.403629
46.1468,-315.64,-0.399787
46.3487,-315.64,-0.395945
46.5503,-315.64,-0.397967
46.7516,-315.64,-0.397563
46.9513,-315.64,-0.39635
47.151,-315.64,-0.400191
47.3521,-315.64,-0.392913
47.5529,-315.64,-0.394732
47.7529,-315.64,-0.39453
47.9544,-315.64,-0.392306
48.1563,-315.64,-0.38988
48.3561,-315.64,-0.394328
48.5574,-315.64,-0.388262
48.7571,-315.64,-0.393519
48.9568,-315.64,-0.386645
49.1583,-315.64,-0.38806
49.358,-315.64,-0.387251
49.5587,-315.64,-0.390486
49.758,-315.64,-0.393519
49.9578,-315.64,-0.391093
50.1582,-315.64,-0.382601
50.3592,-315.64,-0.386241
50.5604,-315.64,-0.381186
50.7606,-315.64,-0.387656
50.9604,-315.64,-0.383208
51.1604,-315.64,-0.384623
51.3605,-315.64,-0.379366
51.5603,-315.64,-0.376131
51.7614,-315.64,-0.379164
51.9614,-315.64,-0.37876
52.1633,-315.64,-0.379973
52.3653,-315.64,-0.378153
52.5653,-315.64,-0.376738
52.7655,-315.64,-0.381186
52.9656,-315.64,-0.383612
53.1648,-315.64,-0.377344
53.3657,-315.64,-0.376131
53.5664,-315.64,-0.375322
53.766,-315.64,-0.377344
53.9664,-315.64,-0.373705
54.1664,-315.64,-0.375525
54.367,-315.64,-0.374918
54.5668,-315.64,-0.380984
54.7689,-315.64,-0.377344
54.9693,-315.64,-0.372896
55.1704,-315.64,-0.380377
55.3711,-315.64,-0.377344
55.5711,-315.64,-0.372492
55.7718,-315.64,-0.376536
55.972,-315.64,-0.380175
56.1725,-315.64,-0.371481
56.373,-315.64,-0.369257
56.5742,-315.64,-0.367842
56.7741,-315.64,-0.369257
56.9758,-315.64,-0.37512
57.1766,-315.64,-0.364
57.3759,-315.64,-0.36582
57.5768,-315.64,-0.371683
57.7784,-315.64,-0.367033
57.9783,-315.64,-0.370874
58.1787,-315.64,-0.367639
58.3783,-315.64,-0.369863
58.5797,-315.64,-0.36582
58.7802,-315.64,-0.367842
58.9811,-315.64,-0.363798
59.1823,-315.64,-0.360361
59.3826,-315.64,-0.360563
59.5842,-315.64,-0.370268
59.7848,-315.64,-0.367033
59.9842,-315.64,-0.365618
60.1848,-315.64,-0.364607
60.387,-315.64,-0.363393
60.5893,-315.64,-0.366022
60.7889,-315.64,-0.364809
60.9899,-315.64,-0.361169
61.1904,-315.64,-0.357732
61.3908,-315.64,-0.363191
61.5924,-315.64,-0.361574
61.7954,-315.64,-0.361776
61.9954,-315.64,-0.364202
62.1956,-315.64,-0.358137
62.3967,-315.64,-0.352475
62.5965,-315.64,-0.359552
62.7964,-315.64,-0.356115
62.9975,-315.64,-0.351262
63.1985,-315.64,-0.353082
63.3987,-315.64,-0.356721
63.5988,-315.64,-0.358137
63.7999,-315.64,-0.357126
64.0,-315.64,-0.354902
64.2015,-315.64,-0.35753
64.4012,-315.64,-0.34641
64.6013,-315.64,-0.350049
64.8022,-315.64,-0.351262
65.0028,-315.64,-0.352071
65.2033,-315.64,-0.34823
65.4044,-315.64,-0.35571
65.6046,-315.64,-0.354497
65.8049,-315.64,-0.352475
66.0054,-315.64,-0.35571
66.2065,-315.64,-0.347219
66.4071,-315.64,-0.353689
66.608,-315.64,-0.346612
66.8104,-315.64,-0.350049
67.0107,-315.64,-0.348432
67.2104,-315.64,-0.34924
67.4113,-315.64,-0.347421
67.6112,-315.64,-0.352475
67.8112,-315.64,-0.34459
68.0116,-315.64,-0.346208
68.2112,-315.64,-0.343781
68.4124,-315.64,-0.345197
68.6124,-315.64,-0.341557
68.8133,-315.64,-0.34924
69.0129,-315.64,-0.342164
69.2132,-315.64,-0.346612
69.4142,-315.64,-0.344995
69.6157,-315.64,-0.344388
69.8153,-315.64,-0.344792
70.0164,-315.64,-0.343781
70.2183,-315.64,-0.34459
70.4203,-315.64,-0.344995
70.6214,-315.64,-0.344995
70.8209,-315.64,-0.347623
71.0225,-315.64,-0.346612
71.2219,-315.64,-0.347623
71.4232,-315.64,-0.347825
71.623,-315.64,-0.348027
71.8236,-315.64,-0.343984
72.0249,-315.64,-0.340546
72.225,-315.64,-0.337109
72.4266,-315.64,-0.342366
72.6268,-315.64,-0.345399
72.8277,-315.64,-0.335896
73.0275,-315.64,-0.343984
73.2271,-315.64,-0.339131
73.4279,-315.64,-0.345197
73.6271,-315.64,-0.336098
73.8287,-315.64,-0.340546
74.0284,-315.64,-0.338525
74.229,-315.64,-0.348432
74.4304,-315.64,-0.34277
74.631,-315.64,-0.342568
74.8313,-315.64,-0.334885
75.0313,-315.64,-0.340951
75.2311,-315.64,-0.338727
75.4324,-315.64,-0.33529
75.6326,-315.64,-0.337109
75.8333,-315.64,-0.331852
76.0337,-315.64,-0.335492
76.2334,-315.64,-0.335492
76.4333,-315.64,-0.336705
76.6335,-315.64,-0.331852
76.8331,-315.64,-0.334279
77.0336,-315.64,-0.336907
77.2331,-315.64,-0.336301
77.4334,-315.64,-0.329426
77.6336,-315.64,-0.329224
77.8346,-315.64,-0.326393
78.0354,-315.64,-0.331448
78.2354,-315.64,-0.331044
78.4357,-315.64,-0.332661
78.6368,-315.64,-0.334076
78.8366,-315.64,-0.333268
79.0382,-315.64,-0.330639
79.2394,-315.64,-0.332257
79.4391,-315.64,-0.331852
79.6396,-315.64,-0.333268
79.8391,-315.64,-0.333672
80.0401,-315.64,-0.331852
80.2403,-315.64,-0.329224
80.4408,-315.64,-0.328213
80.6413,-315.64,-0.326798
80.8413,-315.64,-0.324776
81.0414,-315.64,-0.329426
81.2414,-315.64,-0.322147
81.4415,-315.64,-0.327809
81.6414,-315.64,-0.327607
81.8414,-315.64,-0.328213
82.0413,-315.64,-0.327202
82.2415,-315.64,-0.328617
82.4418,-315.64,-0.325787
82.6428,-315.64,-0.324372
82.8436,-315.64,-0.324978
83.0436,-315.64,-0.323765
83.2439,-315.64,-0.326191
83.4435,-315.64,-0.325382
83.6437,-315.64,-0.321743
83.8436,-315.64,-0.323563
84.0435,-315.64,-0.321541
84.2436,-315.64,-0.319115
84.4448,-315.64,-0.323563
84.645,-315.64,-0.322956
84.8458,-315.64,-0.322552
85.046,-315.64,-0.324574
85.2454,-315.64,-0.319923
85.4464,-315.64,-0.323361
85.6471,-315.64,-0.323158
85.8481,-315.64,-0.321945
86.0486,-315.64,-0.31588
86.25,-315.64,-0.323158
86.4502,-315.64,-0.327809
86.651,-315.64,-0.328415
86.8508,-315.64,-0.324574
87.0501,-315.64,-0.328011
87.2507,-315.64,-0.324169
87.4501,-315.64,-0.325787
87.6526,-315.64,-0.32235
87.8536,-315.64,-0.323158
88.0536,-315.64,-0.316688
88.2538,-315.64,-0.323158
88.4537,-315.64,-0.32053
88.6546,-315.64,-0.321945
88.856,-315.64,-0.317295
89.0571,-315.64,-0.312038
89.2595,-315.64,-0.317699
89.4608,-315.64,-0.317295
89.6605,-315.64,-0.315071
89.8611,-315.64,-0.319115
90.0626,-315.64,-0.313251
90.2642,-315.64,-0.319923
90.4643,-315.64,-0.308399
90.6651,-315.64,-0.319721
90.8664,-315.64,-0.31588
91.0668,-315.64,-0.31588
91.2676,-315.64,-0.314262
91.4686,-315.64,-0.313251
91.6689,-315.64,-0.31588
91.8701,-315.64,-0.311432
92.0717,-315.64,-0.316688
92.2722,-315.64,-0.316082
92.4747,-315.64,-0.316891
92.6756,-315.64,-0.314869
92.8768,-315.64,-0.310825
93.079,-315.64,-0.312645
93.2798,-315.64,-0.311836
93.4797,-315.64,-0.315475
93.6801,-315.64,-0.312038
93.8797,-315.64,-0.311027
94.0799,-315.64,-0.311027
94.2817,-315.64,-0.315273
94.4814,-315.64,-0.314869
94.6817,-315.64,-0.311027
94.8815,-315.64,-0.310623
95.0815,-315.64,-0.315475
95.2815,-315.64,-0.308197
95.4815,-315.64,-0.309612
95.6819,-315.64,-0.305366
95.8829,-315.64,-0.310421
96.0822,-315.64,-0.313858
96.2846,-315.64,-0.315475
96.4861,-315.64,-0.310016
96.6873,-315.64,-0.304153
96.8888,-315.64,-0.304962
97.0882,-315.64,-0.304557
97.2891,-315.64,-0.303951
97.4891,-315.64,-0.306984
97.6892,-315.64,-0.309612
97.889,-315.64,-0.31224
98.0892,-315.64,-0.306984
98.2884,-315.64,-0.306175
98.4887,-315.64,-0.30941
98.6893,-315.64,-0.304962
98.8896,-315.64,-0.302535
99.0903,-315.64,-0.303546
99.2926,-315.64,-0.308601
99.4929,-315.64,-0.305973
99.6938,-315.64,-0.303546
99.8936,-315.64,-0.307994
100.0938,-315.64,-0.298694
100.2935,-315.64,-0.299907
100.4945,-315.64,-0.299503
100.6944,-315.64,-0.300109
100.8945,-315.64,-0.302131
101.0958,-315.64,-0.307186
101.2959,-315.64,-0.305366
101.4959,-315.64,-0.309208
101.6958,-315.64,-0.304759
101.8953,-315.64,-0.303951
102.0953,-315.64,-0.300716
102.2963,-315.64,-0.302333
102.4976,-315.64,-0.297481
102.699,-315.64,-0.300311
102.8991,-315.64,-0.302738
103.0993,-315.64,-0.297481
103.2992,-315.64,-0.296268
103.5003,-315.64,-0.301322
103.701,-315.64,-0.296874
103.9005,-315.64,-0.29829
104.1003,-315.64,-0.29647
104.3025,-315.64,-0.294448
104.5042,-315.64,-0.299705
104.7036,-315.64,-0.300918
104.9034,-315.64,-0.298087
105.1047,-315.64,-0.298896
105.3045,-315.64,-0.299907
105.5067,-315.64,-0.296268
105.7074,-315.64,-0.295055
105.909,-315.64,-0.295055
106.111,-315.64,-0.298492
106.3111,-315.64,-0.297683
106.5113,-315.64,-0.298896
106.7126,-315.64,-0.296874
106.914,-315.64,-0.29647
107.1139,-315.64,-0.300311
107.314,-315.64,-0.29829
107.5138,-315.64,-0.299705
107.7136,-315.64,-0.293033
107.915,-315.64,-0.296065
108.1152,-315.64,-0.298694
108.3148,-315.64,-0.291011
108.5159,-315.64,-0.296268
108.7158,-315.64,-0.295055
108.917,-315.64,-0.298087
109.1174,-315.64,-0.294448
109.3174,-315.64,-0.293841
109.5183,-315.64,-0.297481
109.7199,-315.64,-0.290404
109.9193,-315.64,-0.290202
110.1197,-315.64,-0.296268
110.3197,-315.64,-0.297076
110.5198,-315.64,-0.294448
110.7198,-315.64,-0.297683
110.9193,-315.64,-0.29465
111.121,-315.64,-0.302131
111.322,-315.64,-0.296874
111.5228,-315.64,-0.295257
111.7224,-315.64,-0.290404
111.9239,-315.64,-0.29465
112.1236,-315.64,-0.293639
112.3239,-315.64,-0.289191
112.5238,-315.64,-0.290606
112.7242,-315.64,-0.289596
112.9239,-315.64,-0.29
113.125,-315.64,-0.29465
113.3252,-315.64,-0.289798
113.5247,-315.64,-0.289191
113.7252,-315.64,-0.287776
113.9252,-315.64,-0.287371
114.1247,-315.64,-0.289798
114.3259,-315.64,-0.292426
114.5266,-315.64,-0.289393
114.7278,-315.64,-0.288787
114.9293,-315.64,-0.285147
115.1284,-315.64,-0.285552
115.3285,-315.64,-0.289191
115.5288,-315.64,-0.284136
115.7288,-315.64,-0.289191
115.9288,-315.64,-0.289596
116.1295,-315.64,-0.285552
116.3305,-315.64,-0.284743
116.5317,-315.64,-0.287169
116.7317,-315.64,-0.285956
116.9321,-315.64,-0.285956
117.1319,-315.64,-0.288989
117.3317,-315.64,-0.289798
117.5316,-315.64,-0.281912
117.7317,-315.64,-0.286563
117.9317,-315.64,-0.282519
118.1314,-315.64,-0.283934
118.3329,-315.64,-0.285754
118.5328,-315.64,-0.285147
118.7348,-315.64,-0.286563
118.9349,-315.64,-0.286563
119.1351,-315.64,-0.284136
119.3348,-315.64,-0.283732
119.5349,-315.64,-0.281508
119.7347,-315.64,-0.280901
119.9369,-315.64,-0.277667
120.1377,-315.64,-0.286967
120.3399,-315.64,-0.281104
120.5397,-315.64,-0.284339
120.7401,-315.64,-0.283732
120.941,-315.64,-0.283732
121.1401,-315.64,-0.282317
121.3407,-315.64,-0.28171
121.5416,-315.64,-0.279082
121.7444,-315.64,-0.283934
121.9464,-315.64,-0.284743
122.1469,-315.64,-0.282519
122.3483,-315.64,-0.280295
122.5482,-315.64,-0.283126
122.7491,-315.64,-0.28353
122.9487,-315.64,-0.276858
123.149,-315.64,-0.278677
123.3488,-315.64,-0.274634
123.5494,-315.64,-0.274229
123.75,-315.64,-0.276251
123.9515,-315.64,-0.276049
124.1518,-315.64,-0.275847
124.3518,-315.64,-0.273016
124.5531,-315.64,-0.274634
124.7554,-315.64,-0.275442
124.956,-315.64,-0.274634
125.1569,-315.64,-0.276656
125.3573,-315.64,-0.278273
125.5571,-315.64,-0.274432
125.7581,-315.64,-0.272005
125.9578,-315.64,-0.272814
126.1579,-315.64,-0.275645
126.3582,-315.64,-0.274027
126.5582,-315.64,-0.271601
126.7591,-315.64,-0.280295
126.9596,-315.64,-0.273016
127.1603,-315.64,-0.270792
127.3604,-315.64,-0.273421
127.5595,-315.64,-0.268973
127.7595,-315.64,-0.269175
127.9608,-315.64,-0.269983
128.1616,-315.64,-0.273623
128.363,-315.64,-0.270186
128.5654,-315.64,-0.268973
128.7655,-315.64,-0.267962
128.9655,-315.64,-0.268164
129.1662,-315.64,-0.26877
129.3659,-315.64,-0.266344
129.5655,-315.64,-0.26877
129.766,-315.64,-0.268973
129.9665,-315.64,-0.264727
130.168,-315.64,-0.267557
130.3696,-315.64,-0.274634
130.571,-315.64,-0.27241
130.7722,-315.64,-0.273218
130.9726,-315.64,-0.271399
131.1732,-315.64,-0.272612
131.373,-315.64,-0.270792
131.5727,-315.64,-0.27888
131.774,-315.64,-0.278677
131.9738,-315.64,-0.275038
132.1742,-315.64,-0.271803
132.3742,-315.64,-0.273016
132.5742,-315.64,-0.269377
132.7742,-315.64,-0.270186
132.9749,-315.64,-0.27059
133.1749,-315.64,-0.273623
133.3751,-315.64,-0.270186
133.5763,-315.64,-0.272207
133.7759,-315.64,-0.267962
133.9762,-315.64,-0.269983
134.1765,-315.64,-0.265131
134.3764,-315.64,-0.269377
134.5761,-315.64,-0.268366
134.7759,-315.64,-0.263311
134.9771,-315.64,-0.264727
135.1769,-315.64,-0.263109
135.377,-315.64,-0.266546
135.5768,-315.64,-0.270792
135.778,-315.64,-0.275442
135.9779,-315.64,-0.268568
136.1803,-315.64,-0.26877
136.3824,-315.64,-0.263513
136.5816,-315.64,-0.263918
136.7819,-315.64,-0.265738
136.9832,-315.64,-0.264524
137.1841,-315.64,-0.261492
137.3836,-315.64,-0.262098
137.5843,-315.64,-0.259268
137.7835,-315.64,-0.258257
137.9856,-315.64,-0.262705
138.1857,-315.64,-0.262098
138.3861,-315.64,-0.263716
138.5856,-315.64,-0.26594
138.7865,-315.64,-0.264727
138.9866,-315.64,-0.263918
139.1871,-315.64,-0.266142
139.3883,-315.64,-0.265131
139.5881,-315.64,-0.2623
139.7905,-315.64,-0.266142
139.9898,-315.64,-0.265333
140.1916,-315.64,-0.264929
140.3927,-315.64,-0.265131
140.5926,-315.64,-0.268164
140.7944,-315.64,-0.266546
140.9937,-315.64,-0.262503
141.1943,-315.64,-0.270994
141.3963,-315.64,-0.257448
141.5961,-315.64,-0.265131
141.7966,-315.64,-0.264322
141.996,-315.64,-0.266748
142.196,-315.64,-0.25947
142.3972,-315.64,-0.260278
142.5974,-315.64,-0.262503
142.7971,-315.64,-0.259874
142.9974,-315.64,-0.259874
143.198,-315.64,-0.260278
143.3992,-315.64,-0.260885
143.5992,-315.64,-0.266546
143.8,-315.64,-0.260076
144.0013,-315.64,-0.260076
144.2013,-315.64,-0.260481
144.4008,-315.64,-0.263918
144.6008,-315.64,-0.257246
144.8036,-315.64,-0.25583
145.0035,-315.64,-0.258661
145.2041,-315.64,-0.25765
145.4056,-315.64,-0.260885
145.6062,-315.64,-0.254011
145.8061,-315.64,-0.261289
146.0076,-315.64,-0.257448
146.2067,-315.64,-0.26412
146.4071,-315.64,-0.252798
146.6072,-315.64,-0.25583
146.8074,-315.64,-0.254011
147.0077,-315.64,-0.257448
147.2078,-315.64,-0.25583
147.4092,-315.64,-0.259672
147.6105,-315.64,-0.255628
147.8097,-315.64,-0.253404
148.0101,-315.64,-0.255628
148.2115,-315.64,-0.251787
148.4115,-315.64,-0.257246
148.6133,-315.64,-0.257044
148.8139,-315.64,-0.253809
149.0152,-315.64,-0.249967
149.2172,-315.64,-0.256033
149.4173,-315.64,-0.254617
149.6175,-315.64,-0.25765
149.8179,-315.64,-0.249967
150.0193,-315.64,-0.253
150.2189,-315.64,-0.253404
150.4193,-315.64,-0.255022
150.619,-315.64,-0.253404
150.8203,-315.64,-0.253606
151.0201,-315.64,-0.253606
151.2203,-315.64,-0.25947
151.4209,-315.64,-0.24835
151.6217,-315.64,-0.252191
151.8247,-315.64,-0.258257
152.0247,-315.64,-0.252595
152.2263,-315.64,-0.251584
152.4257,-315.64,-0.25118
152.6269,-315.64,-0.249765
152.8307,-315.64,-0.248552
153.0294,-315.64,-0.246732
153.2301,-315.64,-0.250978
153.4314,-315.64,-0.25118
153.6312,-315.64,-0.254213
153.8313,-315.64,-0.252191
154.0321,-315.64,-0.246125
154.2332,-315.64,-0.250574
154.4341,-315.64,-0.252595
154.6342,-315.64,-0.252191
154.8341,-315.64,-0.249158
155.0343,-315.64,-0.25118
155.2352,-315.64,-0.254213
155.4351,-315.64,-0.254011
155.6347,-315.64,-0.248147
155.8368,-315.64,-0.24835
156.0387,-315.64,-0.251787
156.2388,-315.64,-0.251989
156.4397,-315.64,-0.253404
156.6393,-315.64,-0.253
156.8398,-315.64,-0.251382
157.0397,-315.64,-0.247541
157.2413,-315.64,-0.250776
157.4413,-315.64,-0.24936
157.641,-315.64,-0.244306
157.8426,-315.64,-0.245923
158.0423,-315.64,-0.242486
158.2433,-315.64,-0.246732
158.4465,-315.64,-0.245115
158.6468,-315.64,-0.249563
158.8476,-315.64,-0.245317
159.0472,-315.64,-0.247136
159.2475,-315.64,-0.247136
159.4486,-315.64,-0.246732
159.6481,-315.64,-0.245317
159.8483,-315.64,-0.246934
160.0486,-315.64,-0.243093
160.2481,-315.64,-0.247743
160.4489,-315.64,-0.252798
160.649,-315.64,-0.24936
160.8498,-315.64,-0.249765
161.0502,-315.64,-0.246732
161.2502,-315.64,-0.245519
161.4499,-315.64,-0.242284
161.6498,-315.64,-0.244912
161.8509,-315.64,-0.241071
162.0522,-315.64,-0.24936
162.2528,-315.64,-0.243901
162.4529,-315.64,-0.245317
162.6528,-315.64,-0.24471
162.8535,-315.64,-0.245317
163.0531,-315.64,-0.243699
163.2534,-315.64,-0.24471
163.4542,-315.64,-0.243901
163.6543,-315.64,-0.246125
163.8546,-315.64,-0.248956
164.0542,-315.64,-0.243093
164.2539,-315.64,-0.238645
164.4543,-315.64,-0.248147
164.6545,-315.64,-0.239858
164.8555,-315.64,-0.23824
165.0563,-315.64,-0.248956
165.2561,-315.64,-0.245721
165.4568,-315.64,-0.246125
165.657,-315.64,-0.24471
165.8588,-315.64,-0.242688
166.0591,-315.64,-0.241677
166.2598,-315.64,-0.236421
166.4591,-315.64,-0.245115
166.659,-315.64,-0.242688
166.8602,-315.64,-0.239858
167.0603,-315.64,-0.241677
167.2615,-315.64,-0.236623
167.4618,-315.64,-0.241677
167.6622,-315.64,-0.24006
167.862,-315.64,-0.239858
168.0628,-315.64,-0.237836
168.2618,-315.64,-0.241273
168.4622,-315.64,-0.234399
168.6621,-315.64,-0.238442
168.8622,-315.64,-0.238847
169.0642,-315.64,-0.242082
169.2645,-315.64,-0.243901
169.4646,-315.64,-0.24006
169.6652,-315.64,-0.241475
169.866,-315.64,-0.243699
170.0686,-315.64,-0.249765
170.2686,-315.64,-0.237027
170.4682,-315.64,-0.243901
170.6679,-315.64,-0.237836
170.8685,-315.64,-0.242284
171.069,-315.64,-0.24006
171.2701,-315.64,-0.246125
171.4714,-315.64,-0.239251
171.6722,-315.64,-0.244508
171.8724,-315.64,-0.242082
172.0734,-315.64,-0.233186
172.2732,-315.64,-0.236218
172.4741,-315.64,-0.242284
172.6758,-315.64,-0.241273
172.8765,-315.64,-0.239453
173.0766,-315.64,-0.240262
173.276,-315.64,-0.23824
173.4777,-315.64,-0.238038
173.6776,-315.64,-0.238442
173.8774,-315.64,-0.237431
174.0778,-315.64,-0.236016
174.2784,-315.64,-0.240464
174.4794,-315.64,-0.237027
174.6796,-315.64,-0.239858
174.8799,-315.64,-0.236016
175.0815,-315.64,-0.236421
175.2817,-315.64,-0.239049
175.4828,-315.64,-0.242082
175.6821,-315.64,-0.231164
175.8822,-315.64,-0.239251
176.0822,-315.64,-0.23824
176.2848,-315.64,-0.239453
176.4844,-315.64,-0.236623
176.6847,-315.64,-0.23824
176.8845,-315.64,-0.239049
177.0843,-315.64,-0.237431
177.2841,-315.64,-0.234196
177.4845,-315.64,-0.235814
177.6847,-315.64,-0.229748
177.8844,-315.64,-0.235207
178.084,-315.64,-0.231972
178.2854,-315.64,-0.233994
178.486,-315.64,-0.236825
178.6863,-315.64,-0.235814
178.8879,-315.64,-0.238038
179.0886,-315.64,-0.234601
179.2894,-315.64,-0.238847
179.4895,-315.64,-0.235005
179.6903,-315.64,-0.240464
179.8916,-315.64,-0.236825
180.092,-315.64,-0.23541
180.2923,-315.64,-0.234601
180.4953,-315.64,-0.233388
180.6956,-315.64,-0.23177
180.8953,-315.64,-0.234803
181.0953,-315.64,-0.22712
181.2959,-315.64,-0.233388
181.4953,-315.64,-0.235612
181.6958,-315.64,-0.23177
181.8953,-315.64,-0.230355
182.0959,-315.64,-0.231568
182.2961,-315.64,-0.231164
182.4991,-315.64,-0.231164
182.7005,-315.64,-0.23177
182.9001,-315.64,-0.235207
183.1008,-315.64,-0.235612
183.3004,-315.64,-0.23359
183.5005,-315.64,-0.232579
183.7008,-315.64,-0.232983
183.9006,-315.64,-0.23177
184.1007,-315.64,-0.233388
184.3005,-315.64,-0.231972
184.5001,-315.64,-0.230759
184.7004,-315.64,-0.227929
184.901,-315.64,-0.228535
185.1013,-315.64,-0.231568
185.3017,-315.64,-0.231164
185.5023,-315.64,-0.230153
185.7039,-315.64,-0.225502
185.9048,-315.64,-0.228333
186.1051,-315.64,-0.22894
186.3053,-315.64,-0.230557
186.5051,-315.64,-0.231366
186.7084,-315.64,-0.229748
186.9102,-315.64,-0.231164
187.1117,-315.64,-0.230557
187.3119,-315.64,-0.225502
187.5125,-315.64,-0.229951
187.7125,-315.64,-0.226311
187.9137,-315.64,-0.225502
188.1138,-315.64,-0.229951
188.3145,-315.64,-0.232983
188.5152,-315.64,-0.227727
188.7166,-315.64,-0.232377
188.9168,-315.64,-0.230759
189.1172,-315.64,-0.23177
189.3196,-315.64,-0.229748
189.5185,-315.64,-0.226716
189.7183,-315.64,-0.230355
189.919,-315.64,-0.225705
190.1206,-315.64,-0.229951
190.3222,-315.64,-0.232175
190.5224,-315.64,-0.225705
190.7224,-315.64,-0.223278
190.923,-315.64,-0.225098
191.1222,-315.64,-0.230557
191.3224,-315.64,-0.234399
191.5226,-315.64,-0.225705
191.7222,-315.64,-0.225907
191.9237,-315.64,-0.224492
192.1248,-315.64,-0.230961
192.3245,-315.64,-0.227929
192.5248,-315.64,-0.225907
192.7251,-315.64,-0.223683
192.9261,-315.64,-0.226109
193.1261,-315.64,-0.225907
193.3265,-315.64,-0.229142
193.5263,-315.64,-0.228131
193.7292,-315.64,-0.231366
193.9294,-315.64,-0.227929
194.1301,-315.64,-0.228333
194.3295,-315.64,-0.230355
194.531,-315.64,-0.226311
194.7312,-315.64,-0.225705
194.9325,-315.64,-0.221661
195.1334,-315.64,-0.228535
195.3336,-315.64,-0.22247
195.5342,-315.48,-0.227727
195.7546,-314.414,-0.222672
195.9544,-313.081,-0.220246
196.1545,-311.747,2.65868
196.3542,-310.414,4.28002
196.5568,-309.081,4.59967
196.7573,-307.748,4.65345
196.9576,-306.415,4.58855
197.1586,-305.048,4.45551
197.3595,-303.715,4.31014
197.5584,-302.382,4.15709
197.7596,-301.049,4.0194
197.9592,-299.716,3.87928
198.1592,-298.383,3.76201
198.3598,-297.048,3.64616
198.5596,-295.714,3.55902
198.7606,-294.381,3.4646
198.9615,-293.048,3.39565
199.1612,-291.715,3.34126
199.3621,-290.383,3.28142
199.5626,-289.049,3.23936
199.7633,-287.682,3.20277
199.9637,-286.349,3.16617
200.1646,-285.016,3.1409
200.3652,-283.683,3.11603
200.5654,-282.35,3.10107
200.7656,-281.017,3.0764
200.9653,-279.684,3.07559
201.1657,-278.351,3.05093
201.3656,-277.018,3.05537
201.5658,-275.685,3.04041
201.7665,-274.352,3.04931
201.968,-272.985,3.05133
202.1672,-271.686,3.06205
202.3684,-270.319,3.10349
202.5691,-268.986,3.13099
202.7697,-267.653,3.17204
202.9697,-266.317,3.2149
203.1707,-265.639,3.25271
203.3707,-265.639,3.29335
203.5706,-265.639,3.28445
203.7708,-265.639,3.3257
203.9708,-265.64,3.32307
204.1702,-265.64,3.32489
204.3717,-265.64,3.32428
204.5716,-265.64,3.3259
204.7719,-265.64,3.33035
204.9728,-265.64,3.32853
205.1738,-265.64,3.32893
205.3732,-265.64,3.32833
205.5737,-265.64,3.32873
205.7736,-265.496,3.32772
205.994,-264.431,3.32287
206.1945,-263.098,3.3263
206.3946,-261.73,3.35259
206.5943,-260.397,3.37543
206.795,-259.064,3.41061
206.9949,-257.731,3.4458
207.1959,-256.398,3.48664
207.396,-255.065,3.50402
207.5956,-253.732,3.49998
207.7972,-252.399,3.50423
207.9973,-251.066,3.50362
208.1977,-249.733,3.50908
208.3983,-248.4,3.51231
208.5987,-247.067,3.51919
208.7999,-245.697,3.52081
209.001,-244.365,3.52687
209.2003,-243.031,3.53354
209.4011,-241.698,3.53051
209.6007,-240.365,3.52141
209.8017,-239.03,3.5206
210.004,-237.662,3.52101
210.2066,-236.329,3.51899
210.4077,-234.997,3.51919
210.6082,-233.664,3.51393
210.8086,-232.331,3.51656
211.0097,-230.963,3.51252
211.2104,-229.63,3.51575
211.4106,-228.297,3.50827
211.6117,-226.964,3.50948
211.8123,-225.631,3.51474
212.0127,-224.298,3.51515
212.2126,-222.965,3.50706
212.4142,-221.632,3.50665
212.6133,-220.265,3.50423
212.8135,-218.966,3.50645
213.0134,-217.599,3.5111
213.2142,-216.3,3.502
213.4146,-215.639,3.50463
213.6149,-215.639,3.50787
213.8149,-215.639,3.49048
214.0149,-215.639,3.50524
214.215,-215.64,3.50827
214.4144,-215.64,3.50686
214.6146,-215.64,3.50564
214.8156,-215.64,3.50665
215.0177,-215.64,3.5018
215.2175,-215.64,3.50746
215.4178,-215.64,3.50402
215.6175,-215.64,3.49937
215.8176,-215.64,3.5014
216.019,-215.64,3.50908
216.2395,-215.097,3.50686
216.4408,-213.728,3.50119
216.6409,-212.394,3.50726
216.841,-211.061,3.50544
217.0412,-209.728,3.50544
217.2407,-208.395,3.50504
217.4404,-207.062,3.5111
217.6412,-205.729,3.49958
217.8406,-204.396,3.49958
218.0408,-203.063,3.502
218.2412,-201.73,3.50342
218.4414,-200.397,3.50382
218.6428,-199.064,3.49877
218.8426,-197.731,3.49857
219.0427,-196.398,3.50544
219.2437,-195.065,3.49937
219.4447,-193.697,3.49937
219.6467,-192.365,3.50362
219.8456,-191.032,3.5018
220.0459,-189.699,3.49998
220.2461,-188.366,3.5018
220.4457,-187.033,3.502
220.6456,-185.7,3.49998
220.8454,-184.367,3.49553
221.0458,-183.034,3.49937
221.247,-181.7,3.50261
221.4478,-180.368,3.49857
221.6476,-179.034,3.49897
221.8479,-177.702,3.5014
222.0482,-176.369,3.49533
222.2478,-175.036,3.4927
222.4489,-173.703,3.50119
222.6493,-172.369,3.49897
222.8484,-171.037,3.49594
223.0486,-169.703,3.4925
223.2501,-168.368,3.49755
223.4501,-167.001,3.49614
223.6514,-165.693,3.49068
223.8514,-165.639,3.49654
224.0527,-165.639,3.49654
224.2527,-165.639,3.45752
224.4528,-165.64,3.49392
224.6544,-165.64,3.4929