File: Tinius-Olsen_Levitation_force/Preprocessed_measures/20231204_1051cut1_lowN_2.txt.csv
Time(s),Displacement(mm),Force(N)
0.0,49.848,3.35886
0.3425,47.963,3.38898
0.6428,45.98,3.38676
0.9423,43.963,3.38069
1.2423,41.981,3.38716
1.5433,39.964,3.38918
1.8451,37.948,3.3904
2.1459,35.965,3.38999
2.4465,33.946,3.391
2.7481,31.93,3.37766
3.0485,29.947,3.39545
3.3481,27.931,3.38757
3.6493,25.948,3.39302
3.9493,23.929,3.38757
4.2493,21.947,3.39282
4.5491,19.93,3.39505
4.8493,17.945,3.3906
5.1493,15.929,3.39262
5.4493,13.946,3.38858
5.7493,11.927,3.3906
6.0498,9.944,3.38777
6.3493,7.928,3.39363
6.6494,5.946,3.38372
6.9502,3.929,3.39302
7.2515,1.912,3.3906
7.5513,-0.103,3.39201
7.8516,-2.086,3.38453
8.1517,-4.068,3.39161
8.4528,-6.085,3.39242
8.7535,-8.104,3.38453
9.0538,-10.086,3.40152
9.3557,-12.103,3.38494
9.657,-14.119,3.38898
9.9577,-16.136,3.38292
10.2579,-18.118,3.38595
10.5594,-20.137,3.38939
10.8594,-22.12,3.38999
11.1593,-24.137,3.3908
11.4594,-26.121,3.39767
11.7602,-28.138,3.38433
12.0615,-30.157,3.38939
12.3623,-32.173,3.39161
12.6622,-34.156,3.38575
12.9649,-36.173,3.38777
13.2651,-38.155,3.38959
13.5646,-40.172,3.3813
13.8643,-42.154,3.38736
14.1647,-44.173,3.3912
14.4659,-46.19,3.38575
14.7657,-48.172,3.38655
15.0668,-50.189,3.38696
15.3668,-52.171,3.39161
15.6667,-54.19,3.38271
15.9669,-56.207,3.38736
16.2671,-58.189,3.37988
16.5679,-60.206,3.38251
16.8681,-62.188,3.39343
17.1682,-64.205,3.38898
17.4691,-66.187,3.38777
17.769,-68.204,3.39302
18.0691,-70.186,3.39262
18.3692,-72.203,3.38918
18.6692,-74.185,3.38939
18.9696,-76.202,3.39383
19.2695,-78.219,3.39222
19.5695,-80.201,3.38837
19.8695,-82.218,3.38757
20.1711,-84.2,3.38635
20.4722,-86.217,3.3912
20.7717,-88.233,3.38696
21.0718,-90.216,3.39727
21.372,-92.198,3.39019
21.6719,-94.217,3.38757
21.9719,-96.234,3.38959
22.272,-98.216,3.38433
22.5716,-100.233,3.39262
22.8736,-102.215,3.39666
23.1738,-104.232,3.39242
23.475,-106.248,3.38999
23.7752,-108.231,3.38696
24.0755,-110.247,3.39282
24.3758,-112.232,3.38453
24.6776,-114.249,3.38696
24.9779,-116.266,3.38736
25.2777,-118.248,3.3908
25.5802,-120.264,3.38534
25.8809,-122.281,3.38292
26.1821,-124.266,3.39343
26.4824,-126.282,3.3999
26.7835,-128.299,3.38999
27.0845,-130.316,3.39242
27.3862,-132.298,3.38959
27.6868,-134.315,3.39242
27.9872,-136.297,3.39565
28.288,-138.316,3.39444
28.5881,-140.333,3.38453
28.8885,-142.316,3.39242
29.1897,-144.332,3.3906
29.4897,-146.348,3.37968
29.7897,-148.331,3.39565
30.0897,-150.347,3.38757
30.3903,-152.33,3.38716
30.6898,-154.346,3.38413
30.9898,-156.329,3.39464
31.2904,-158.345,3.40071
31.5898,-160.328,3.39626
31.8898,-162.344,3.38676
32.1913,-164.327,3.41102
32.4918,-166.343,3.39242
32.7922,-168.36,3.39019
33.0922,-170.342,3.38554
33.3921,-172.359,3.39262
33.6918,-174.342,3.38979
33.9921,-176.358,3.39464
34.2927,-178.375,3.38878
34.594,-180.357,3.38797
34.8951,-182.374,3.37988
35.1954,-184.356,3.38858
35.4952,-186.373,3.38029
35.7948,-188.355,3.38696
36.0949,-190.374,3.38817
36.3948,-192.357,3.39019
36.6949,-194.373,3.39545
36.9951,-196.39,3.40313
37.2953,-198.373,3.39525
37.5959,-200.389,3.39262
37.8962,-202.371,3.39282
38.1962,-204.388,3.38898
38.4962,-206.37,3.3904
38.7965,-208.387,3.38817
39.096,-210.369,3.3906
39.396,-212.386,3.38514
39.6962,-214.368,3.38858
39.9956,-216.385,3.38939
40.2971,-218.367,3.39565
40.5983,-220.384,3.3904
40.8977,-222.401,3.38959
41.1985,-224.383,3.39646
41.4981,-226.4,3.38413
41.7978,-228.383,3.39383
42.0984,-230.399,3.39626
42.3981,-232.381,3.3906
42.6998,-234.398,3.38817
42.9999,-236.414,3.39363
43.2999,-238.397,3.3912
43.5999,-240.413,3.40131
43.8999,-242.396,3.3906
44.2006,-244.412,3.39181
44.5005,-246.395,3.391
44.7999,-248.411,3.3906
45.0999,-250.396,3.38089
45.4002,-252.413,3.39343
45.7016,-254.395,3.37665
46.0038,-256.412,3.38797
46.3039,-258.431,3.38979
46.6055,-260.447,3.38878
46.9049,-262.43,3.3819
47.2047,-264.447,3.38494
47.5058,-266.463,3.38089
47.8071,-268.446,3.36654
48.1073,-270.462,3.36896
48.4094,-272.479,3.36249
48.7088,-274.461,3.35704
49.01,-276.478,3.35057
49.31,-278.46,3.34369
49.6114,-280.477,3.32893
49.9114,-282.459,3.31134
50.2118,-284.476,3.28506
50.5125,-286.493,3.25109
50.8121,-288.475,3.22137
51.1125,-290.494,3.16577
51.4125,-292.476,3.10309
51.7124,-294.493,2.99067
52.0125,-296.475,2.86107
52.3123,-298.492,2.67122
52.6133,-300.509,2.42253
52.915,-302.491,2.05475
53.2169,-304.51,1.56769
53.5177,-306.527,0.851544
53.817,-308.509,-0.138765
54.1178,-310.526,-1.57873
54.4178,-312.508,-3.64407
54.7178,-314.527,-6.73469
55.0176,-316.001,-10.0168
55.3185,-316.0,-8.42153
55.6184,-316.0,-7.91303
55.9194,-316.0,-7.63158
56.2209,-316.0,-7.43405
56.5223,-316.0,-7.30162
56.8225,-316.0,-7.19911
57.1226,-316.0,-7.11197
57.4226,-316.0,-7.05515
57.7233,-316.0,-6.98156
58.0235,-316.0,-6.95082
58.3237,-316.0,-6.89583
58.6238,-316.0,-6.86813
58.923,-316.0,-6.83416
59.2237,-316.0,-6.79231
59.5231,-316.0,-6.77775
59.8231,-316.0,-6.75672
60.1237,-316.0,-6.74257
60.4245,-316.0,-6.69465
60.7241,-316.0,-6.69243
61.0241,-316.0,-6.67504
61.3244,-316.0,-6.65846
61.6245,-316.0,-6.66149
61.9244,-316.0,-6.6344
62.2251,-316.0,-6.63865
62.5255,-316.0,-6.60792
62.8253,-316.0,-6.59599
63.129,-316.0,-6.57557
63.4289,-316.0,-6.58547
63.7286,-316.0,-6.56445
64.0285,-316.0,-6.54766
64.33,-316.0,-6.52846
64.6295,-316.0,-6.52381
64.9296,-316.0,-6.52745
65.2303,-316.0,-6.52765
65.5303,-316.0,-6.49954
65.8303,-316.0,-6.49307
66.1302,-316.0,-6.48701
66.4304,-316.0,-6.48519
66.7303,-316.0,-6.4678
67.0318,-316.0,-6.46396
67.3323,-316.0,-6.46376
67.6324,-316.0,-6.4399
67.9324,-316.0,-6.45951
68.2339,-316.0,-6.43525
68.534,-316.0,-6.44354
68.8332,-316.0,-6.43262
69.1355,-316.0,-6.41806
69.4363,-316.0,-6.42676
69.7365,-316.0,-6.40896
70.0371,-316.0,-6.40027
70.3378,-316.0,-6.39885
70.6378,-316.0,-6.38854
70.9379,-316.0,-6.375
71.2376,-316.0,-6.37419
71.5381,-316.0,-6.375
71.8382,-316.0,-6.38187
72.1398,-316.0,-6.35033
72.4392,-316.0,-6.3479
72.7405,-316.0,-6.34993
73.0405,-316.0,-6.33638
73.3419,-316.0,-6.31333
73.6431,-316.0,-6.32566
73.9426,-316.0,-6.32465
74.2427,-316.0,-6.31778
74.5443,-316.0,-6.29291
74.8448,-316.0,-6.31495
75.1447,-316.0,-6.30646
75.4448,-316.0,-6.29331
75.7453,-316.0,-6.28806
76.046,-316.0,-6.30464
76.3465,-316.0,-6.30949
76.6483,-316.0,-6.30868
76.9486,-316.0,-6.29493
77.249,-316.0,-6.30019
77.5495,-316.0,-6.30646
77.8494,-316.0,-6.27552
78.1502,-316.0,-6.28563
78.4505,-316.0,-6.26946
78.7522,-316.0,-6.27208
79.0517,-316.0,-6.26561
79.3529,-316.0,-6.2456
79.653,-316.0,-6.25389
79.953,-316.0,-6.25652
80.253,-316.0,-6.23225
80.5529,-316.0,-6.2367
80.8526,-316.0,-6.22417
81.1525,-316.0,-6.22659
81.4529,-316.0,-6.22235
81.7527,-316.0,-6.21325
82.053,-316.0,-6.1995
82.3529,-316.0,-6.209
82.6529,-316.0,-6.19889
82.9528,-316.0,-6.19303
83.2535,-316.0,-6.18899
83.5539,-316.0,-6.1813
83.854,-316.0,-6.17867
84.1563,-316.0,-6.17241
84.4555,-316.0,-6.17322
84.7567,-316.0,-6.16998
85.057,-316.0,-6.13864
85.3571,-316.0,-6.15623
85.6574,-316.0,-6.13035
85.9583,-316.0,-6.12772
86.258,-316.0,-6.13399
86.5579,-316.0,-6.13662
86.8585,-316.0,-6.11741
87.1592,-316.0,-6.1075
87.4584,-316.0,-6.09841
87.7595,-316.0,-6.10205
88.0607,-316.0,-6.09598
88.3607,-316.0,-6.10791
88.6607,-316.0,-6.08809
88.9607,-315.999,-6.06505
89.2613,-315.999,-6.08729
89.5622,-316.0,-6.08344
89.8619,-316.0,-6.07212
90.1616,-316.0,-6.05797
90.4615,-316.0,-6.04361
90.7622,-316.0,-6.06181
91.0629,-316.0,-6.03088
91.3648,-316.0,-6.02845
91.6664,-316.0,-6.02966
91.9666,-316.0,-6.04058
92.2676,-316.0,-6.0329
92.5713,-316.0,-6.00904
92.8709,-316.0,-6.02623
93.1708,-316.0,-6.01227
93.4707,-316.0,-6.00176
93.7706,-316.0,-5.9959
94.0708,-316.0,-5.99671
94.3708,-316.0,-5.99206
94.6709,-316.0,-5.9589
94.9722,-316.0,-5.97062
95.2728,-316.0,-5.96941
95.5733,-316.0,-5.95283
95.8731,-316.0,-5.95384
96.1733,-316.0,-5.94818
96.4733,-316.0,-5.94737
96.7733,-316.0,-5.92129
97.0749,-316.0,-5.92311
97.3748,-316.0,-5.92412
97.6769,-316.0,-5.91725
97.9776,-316.0,-5.90087
98.2772,-316.0,-5.90916
98.5779,-316.0,-5.89359
98.8785,-316.0,-5.89096
99.1786,-316.0,-5.88631
99.4807,-316.0,-5.86953
99.781,-316.0,-5.86953
100.0808,-316.0,-5.86245
100.3826,-316.0,-5.85477
100.6817,-316.0,-5.85336
100.9824,-316.0,-5.84042
101.2825,-316.0,-5.84021
101.5834,-316.0,-5.83071
101.8834,-316.0,-5.82707
102.1834,-316.0,-5.81353
102.4834,-316.0,-5.82727
102.7834,-316.0,-5.79007
103.0831,-316.0,-5.7931
103.3834,-316.0,-5.81029
103.6828,-316.0,-5.79674
103.9834,-316.0,-5.7927
104.283,-316.0,-5.7743
104.583,-316.0,-5.76884
104.8841,-316.0,-5.78461
105.1848,-316.0,-5.75752
105.4854,-316.0,-5.74397
105.7851,-316.0,-5.7553
106.0853,-316.0,-5.73771
106.3855,-316.0,-5.72699
106.6853,-316.0,-5.72618
106.9852,-316.0,-5.71951
107.2851,-316.0,-5.70879
107.5862,-316.0,-5.71284
107.8859,-316.0,-5.69484
108.1863,-316.0,-5.68109
108.4865,-316.0,-5.67948
108.7864,-316.0,-5.65501
109.0874,-316.0,-5.66735
109.3881,-316.0,-5.63803
109.6888,-316.0,-5.63419
109.9895,-316.0,-5.62104
110.2894,-316.0,-5.61821
110.5906,-316.0,-5.59537
110.891,-316.0,-5.59638
111.1918,-316.0,-5.58
111.4917,-316.0,-5.57616
111.7911,-316.0,-5.56484
112.0909,-316.0,-5.5523
112.391,-316.0,-5.52683
112.6912,-316.0,-5.53208
112.9912,-316.0,-5.5153
113.2911,-316.0,-5.49913
113.5911,-316.0,-5.46738
113.8912,-316.0,-5.45889
114.1925,-316.0,-5.45869
114.4931,-316.0,-5.46617
114.7936,-316.0,-5.44939
115.0936,-316.0,-5.43321
115.3933,-316.0,-5.43625
115.6935,-316.0,-5.40834
115.9939,-316.0,-5.40652
116.2946,-316.0,-5.40592
116.5946,-316.0,-5.38307
116.8947,-316.0,-5.36346
117.1948,-316.0,-5.37013
117.4948,-316.0,-5.36022
117.7952,-316.0,-5.35113
118.0955,-316.0,-5.34708
118.3971,-316.0,-5.32787
118.699,-316.0,-5.32767
119.0017,-316.0,-5.31089
119.3012,-316.0,-5.30968
119.602,-316.0,-5.30563
119.9042,-316.0,-5.2937
120.2056,-316.0,-5.27227
120.5061,-316.0,-5.28258
120.8068,-316.0,-5.2472
121.107,-316.0,-5.25772
121.4073,-316.0,-5.25529
121.7081,-316.0,-5.24033
122.0101,-316.0,-5.23285
122.3113,-316.0,-5.22476
122.6116,-316.0,-5.20211
122.9113,-316.0,-5.20939
123.2113,-316.0,-5.20818
123.5113,-316.0,-5.19281
123.8112,-316.0,-5.18816
124.1113,-316.0,-5.17037
124.4113,-316.0,-5.16511
124.7128,-316.0,-5.1637
125.0123,-316.0,-5.13964
125.3135,-316.0,-5.1356
125.6137,-316.0,-5.12872
125.9134,-316.0,-5.11093
126.2136,-316.0,-5.11619
126.5133,-316.0,-5.10001
126.8134,-316.0,-5.08727
127.1149,-316.0,-5.081
127.4156,-316.0,-5.06523
127.7171,-316.0,-5.05593
128.0178,-316.0,-5.06321
128.3184,-316.0,-5.05694
128.6191,-316.0,-5.04016
128.9183,-316.0,-5.02925
129.2191,-316.0,-5.01287
129.5183,-316.0,-4.99892
129.819,-316.0,-4.99528
130.1191,-316.0,-4.96515
130.4188,-316.0,-4.97162
130.7201,-316.0,-4.97162
131.0199,-316.0,-4.96131
131.3204,-316.0,-4.95808
131.6215,-316.0,-4.94271
131.9226,-316.0,-4.93381
132.2235,-316.0,-4.9235
132.5239,-316.0,-4.92674
132.8239,-316.0,-4.90308
133.1238,-316.0,-4.90531
133.4238,-316.0,-4.89257
133.7239,-316.0,-4.87073
134.0239,-316.0,-4.86891
134.3239,-316.0,-4.87437
134.6239,-316.0,-4.85496
134.9239,-316.0,-4.84182
135.2236,-316.0,-4.82908
135.5239,-316.0,-4.82403
135.8238,-316.0,-4.82564
136.1236,-316.0,-4.80927
136.4239,-316.0,-4.8034
136.724,-316.0,-4.77712
137.0239,-316.0,-4.78278
137.3243,-316.0,-4.75589
137.625,-316.0,-4.7472
137.9252,-316.0,-4.75367
138.225,-316.0,-4.73688
138.5244,-316.0,-4.71929
138.8244,-316.0,-4.70777
139.1243,-316.0,-4.69746
139.4269,-316.0,-4.69523
139.7273,-316.0,-4.68189
140.0281,-316.0,-4.6827
140.3283,-316.0,-4.66106
140.6293,-316.0,-4.66935
140.9307,-316.0,-4.655
141.2311,-316.0,-4.63074
141.5314,-316.0,-4.63781
141.833,-316.0,-4.61315
142.1332,-316.0,-4.5998
142.4339,-316.0,-4.62346
142.7336,-316.0,-4.57473
143.0341,-316.0,-4.57675
143.3341,-316.0,-4.57048
143.634,-316.0,-4.56846
143.934,-316.0,-4.56098
144.234,-316.0,-4.5351
144.534,-316.0,-4.51832
144.8346,-316.0,-4.50983
145.1353,-316.0,-4.51933
145.4355,-316.0,-4.49689
145.7361,-316.0,-4.5076
146.0363,-316.0,-4.48415
146.3355,-316.0,-4.47647
146.6357,-316.0,-4.46029
146.9374,-316.0,-4.43563
147.2379,-316.0,-4.43684
147.5386,-316.0,-4.41743
147.839,-316.0,-4.41601
148.1397,-316.0,-4.39195
148.4399,-316.0,-4.4051
148.7403,-316.0,-4.36567
149.0401,-316.0,-4.3774
149.3417,-316.0,-4.34606
149.6418,-316.0,-4.35819
149.9418,-316.0,-4.33534
150.2421,-316.0,-4.33575
150.5418,-316.0,-4.32301
150.8418,-316.0,-4.3125
151.1418,-316.0,-4.2943
151.4418,-316.0,-4.27812
151.7418,-316.0,-4.27893
152.0418,-316.0,-4.26296
152.3418,-316.0,-4.2486
152.6424,-316.0,-4.23445
152.9418,-316.0,-4.22818
153.2435,-316.0,-4.21565
153.5428,-316.0,-4.20392
153.8431,-316.0,-4.19523
154.1439,-316.0,-4.1926
154.4443,-316.0,-4.18006
154.7439,-316.0,-4.14792
155.0443,-316.0,-4.14893
155.3442,-316.0,-4.14003
155.6447,-316.0,-4.13619
155.9464,-316.0,-4.13376
156.2472,-316.0,-4.09696
156.5483,-316.0,-4.09434
156.8486,-316.0,-4.07796
157.1492,-316.0,-4.05592
157.4502,-316.0,-4.05875
157.7501,-316.0,-4.0537
158.0501,-316.0,-4.02438
158.3501,-316.0,-4.00982
158.6501,-316.0,-4.01366
158.9506,-316.0,-3.98313
159.2507,-316.0,-3.96918
159.5519,-316.0,-3.96332
159.8534,-316.0,-3.94391
160.1543,-316.0,-3.93764
160.4544,-316.0,-3.92854
160.7543,-316.0,-3.90024
161.0544,-316.0,-3.89215
161.354,-316.0,-3.8687
161.6544,-316.0,-3.86405
161.9543,-316.0,-3.86061
162.254,-316.0,-3.8414
162.5544,-316.0,-3.82624
162.8557,-316.0,-3.82462
163.1553,-316.0,-3.78459
163.4549,-316.0,-3.77913
163.756,-316.0,-3.78196
164.0569,-316.0,-3.76518
164.3578,-316.0,-3.75163
164.6581,-316.0,-3.73262
164.9599,-316.0,-3.70391
165.2619,-316.0,-3.68491
165.5621,-316.0,-3.68511
165.8621,-316.0,-3.66146
166.1621,-316.0,-3.63921
166.4621,-316.0,-3.63355
166.7622,-316.0,-3.638
167.0621,-316.0,-3.61212
167.3621,-316.0,-3.59534
167.6621,-316.0,-3.58543
167.9621,-316.0,-3.54621
168.2623,-316.0,-3.52923
168.5619,-316.0,-3.52276
168.8621,-316.0,-3.50274
169.1637,-316.0,-3.47706
169.4645,-316.0,-3.48111
169.7647,-316.0,-3.46129
170.0644,-316.0,-3.42833
170.3646,-316.0,-3.41236
170.6646,-316.0,-3.41034
170.9657,-316.0,-3.37759
171.2667,-316.0,-3.37253
171.5664,-316.0,-3.36364
171.8669,-316.0,-3.33371
172.1675,-316.0,-3.33027
172.4674,-316.0,-3.30884
172.7691,-316.0,-3.30096
173.0698,-316.0,-3.27427
173.3699,-316.0,-3.26456
173.67,-316.0,-3.25061
173.9711,-316.0,-3.23181
174.2728,-316.0,-3.22271
174.5721,-316.0,-3.21159
174.8751,-316.0,-3.18996
175.1764,-316.0,-3.16024
175.4766,-316.0,-3.15134
175.7779,-316.0,-3.13254
176.0789,-316.0,-3.11272
176.3781,-316.0,-3.10281
176.6796,-316.0,-3.06743
176.9796,-316.0,-3.0646
177.2798,-316.0,-3.03609
177.5799,-316.0,-3.02437
177.88,-316.0,-2.9906
178.1804,-316.0,-2.97604
178.4801,-316.0,-2.96331
178.7809,-316.0,-2.93763
179.0808,-316.0,-2.91923
179.3805,-316.0,-2.89254
179.682,-316.0,-2.85675
179.9819,-316.0,-2.85352
180.2823,-316.0,-2.82723
180.5823,-316.0,-2.80459
180.8826,-316.0,-2.78619
181.1824,-316.0,-2.76375
181.4823,-316.0,-2.74858
181.7824,-316.0,-2.72998
182.0823,-316.0,-2.72008
182.3823,-316.0,-2.7039
182.6824,-316.0,-2.67499
182.9847,-316.0,-2.66346
183.2853,-316.0,-2.65396
183.5879,-316.0,-2.64041
183.8888,-316.0,-2.61474
184.1891,-316.0,-2.6117
184.4897,-316.0,-2.58299
184.79,-316.0,-2.56156
185.0897,-316.0,-2.55489
185.3908,-316.0,-2.55145
185.6906,-316.0,-2.5003
185.9904,-316.0,-2.51344
186.2906,-316.0,-2.49747
186.5904,-316.0,-2.48291
186.891,-316.0,-2.46188
187.1911,-316.0,-2.44045
187.4904,-316.0,-2.45339
187.7906,-316.0,-2.43095
188.0925,-316.0,-2.41579
188.3923,-316.0,-2.3895
188.6931,-316.0,-2.39476
188.9924,-316.0,-2.36564
189.2925,-316.0,-2.37757
189.5925,-316.0,-2.33491
189.8925,-316.0,-2.34724
190.1924,-316.0,-2.30458
190.4944,-316.0,-2.30398
190.7948,-316.0,-2.29589
191.0945,-316.0,-2.2781
191.3961,-316.0,-2.26698
191.6969,-316.0,-2.28113
191.9971,-316.0,-2.25586
192.2971,-316.0,-2.24615
192.5978,-316.0,-2.23018
192.8988,-316.0,-2.21481
193.2002,-316.0,-2.2047
193.4998,-316.0,-2.18327
193.8004,-316.0,-2.17862
194.1007,-316.0,-2.17114
194.4011,-315.999,-2.15416
194.7007,-315.999,-2.14122
195.0014,-316.0,-2.13758
195.3019,-316.0,-2.12848
195.6031,-316.0,-2.1022
195.9028,-316.0,-2.12828
196.2024,-316.0,-2.11109
196.5042,-316.0,-2.09249
196.8048,-316.0,-2.0846
197.105,-316.0,-2.07187
197.4049,-316.0,-2.06277
197.7051,-316.0,-2.04841
198.0049,-316.0,-2.03729
198.3062,-316.0,-2.02112
198.6059,-316.0,-2.03062
198.9064,-316.0,-2.01303
199.2072,-316.0,-2.00535
199.5093,-316.0,-1.98291
199.8103,-316.0,-1.97401
200.1102,-316.0,-1.97563
200.4098,-316.0,-1.96309
200.7104,-316.0,-1.95015
201.012,-316.0,-1.95298
201.3131,-316.0,-1.94368
201.6143,-316.0,-1.91861
201.9135,-316.0,-1.92286
202.2136,-316.0,-1.90951
202.5137,-316.0,-1.89091
202.8148,-316.0,-1.89334
203.115,-316.0,-1.87858
203.4148,-316.0,-1.86867
203.7174,-316.0,-1.86362
204.0183,-316.0,-1.86058
204.319,-316.0,-1.84259
204.6194,-316.0,-1.82742
204.9204,-316.0,-1.81893
205.2206,-316.0,-1.80397
205.5205,-316.0,-1.79184
205.8215,-316.0,-1.78901
206.1228,-316.0,-1.78193
206.4227,-316.0,-1.76576
206.7228,-316.0,-1.76232
207.0225,-316.0,-1.75545
207.3244,-316.0,-1.73968
207.6236,-316.0,-1.75342
207.9238,-316.0,-1.71663
208.224,-316.0,-1.71177
208.5241,-316.0,-1.71137
208.8252,-316.0,-1.7146
209.1264,-316.0,-1.70834
209.4269,-316.0,-1.68771
209.7273,-316.0,-1.68731
210.027,-316.0,-1.6772
210.3284,-316.0,-1.66588
210.6297,-316.0,-1.64404
210.9301,-316.0,-1.64141
211.2305,-316.0,-1.63252
211.5317,-316.0,-1.63272
211.8316,-316.0,-1.62989
212.1326,-316.0,-1.60846
212.4329,-316.0,-1.60502
212.7329,-316.0,-1.61594
213.0329,-316.0,-1.60138
213.3329,-316.0,-1.58723
213.6329,-316.0,-1.58581
213.9328,-316.0,-1.57914
214.2329,-316.0,-1.56377
214.5329,-316.0,-1.56499
214.8352,-316.0,-1.53708
215.1353,-316.0,-1.57247
215.4353,-316.0,-1.54962
215.7352,-316.0,-1.55184
216.0349,-316.0,-1.54234
216.3353,-316.0,-1.53041
216.6353,-316.0,-1.51262
216.9348,-316.0,-1.5112
217.2368,-316.0,-1.49422
217.5388,-316.0,-1.49826
217.8399,-316.0,-1.49766
218.1422,-316.0,-1.49361
218.4431,-316.0,-1.48917
218.7436,-316.0,-1.46915
219.043,-316.0,-1.46551
219.3429,-316.0,-1.46329
219.6436,-316.0,-1.46753
219.9429,-316.0,-1.44974
220.2429,-316.0,-1.44266
220.5428,-316.0,-1.45014
220.8429,-316.0,-1.44206
221.143,-316.0,-1.44812
221.443,-316.0,-1.42224
221.7445,-316.0,-1.42689
222.0445,-316.0,-1.418
222.3444,-316.0,-1.40789
222.6453,-316.0,-1.42244
222.9451,-316.0,-1.40526
223.2454,-316.0,-1.39596
223.545,-316.0,-1.39576
223.8453,-316.0,-1.3909
224.1448,-316.0,-1.39454
224.4454,-316.0,-1.3901
224.7455,-316.0,-1.37554
225.0454,-316.0,-1.38464
225.3455,-316.0,-1.36523
225.646,-316.0,-1.37614
225.9464,-316.0,-1.36381
226.2472,-316.0,-1.37716
226.5473,-316.0,-1.34844
226.8483,-316.0,-1.33328
227.1487,-316.0,-1.32418
227.4479,-316.0,-1.326
227.7479,-316.0,-1.34642
228.0491,-316.0,-1.33631
228.3498,-316.0,-1.32641
228.6508,-316.0,-1.32701
228.9531,-316.0,-1.31589
229.2545,-316.0,-1.3167
229.5545,-316.0,-1.31084
229.8549,-316.0,-1.30619
230.1553,-316.0,-1.31529
230.4556,-316.0,-1.29305
230.7554,-316.0,-1.2979
231.0556,-316.0,-1.29183
231.3556,-316.0,-1.28152
231.6556,-316.0,-1.29203
231.9556,-316.0,-1.27748
232.2565,-316.0,-1.27647
232.5564,-316.0,-1.29163
232.8577,-316.0,-1.2795
233.1582,-316.0,-1.27182
233.459,-316.0,-1.27566
233.7591,-316.0,-1.26696
234.0603,-316.0,-1.25706
234.361,-316.0,-1.23724
234.6614,-316.0,-1.24695
234.9612,-316.0,-1.23947
235.2612,-316.0,-1.24149
235.5611,-316.0,-1.23401
235.8625,-316.0,-1.21702
236.1622,-316.0,-1.21116
236.4633,-316.0,-1.21743
236.7632,-316.0,-1.23522
237.0633,-316.0,-1.2144
237.3633,-316.0,-1.21338
237.6633,-316.0,-1.21156
237.9633,-316.0,-1.21318
238.2641,-316.0,-1.19215
238.5655,-316.0,-1.20388
238.8657,-316.0,-1.18629
239.1657,-316.0,-1.20813
239.4653,-316.0,-1.1871
239.7657,-316.0,-1.18892
240.0658,-316.0,-1.18811
240.3656,-316.0,-1.18326
240.6662,-316.0,-1.19155
240.9669,-316.0,-1.18184
241.2669,-316.0,-1.1782
241.5668,-316.0,-1.17436
241.8662,-316.0,-1.18346
242.1672,-316.0,-1.18144
242.4682,-316.0,-1.15738
242.7681,-316.0,-1.15354
243.0691,-316.0,-1.16648
243.372,-316.0,-1.16466
243.6712,-316.0,-1.15596
243.9722,-316.0,-1.14646
244.2746,-316.0,-1.14606
244.575,-316.0,-1.14606
244.8757,-316.0,-1.14747
245.1756,-316.0,-1.13332
245.4759,-316.0,-1.13574
245.7758,-316.0,-1.13332
246.0756,-316.0,-1.12503
246.3758,-316.0,-1.12725
246.6758,-316.0,-1.12442
246.9759,-316.0,-1.1222
247.2759,-316.0,-1.12927
247.5758,-316.0,-1.12361
247.8757,-316.0,-1.12685
248.1758,-316.0,-1.13312
248.4759,-316.0,-1.12826
248.7765,-316.0,-1.12503
249.078,-316.0,-1.1131
249.3777,-316.0,-1.11755
249.6774,-316.0,-1.11189
249.9779,-316.0,-1.10845
250.278,-316.0,-1.0947
250.5788,-316.0,-1.10906
250.8784,-316.0,-1.10158
251.1793,-316.0,-1.10137
251.4819,-316.0,-1.08196
251.7821,-316.0,-1.08742
252.0818,-316.0,-1.08904
252.3812,-316.0,-1.08864
252.6822,-316.0,-1.08944
252.9842,-316.0,-1.09227
253.2835,-316.0,-1.06498
253.5841,-316.0,-1.08682
253.8848,-316.0,-1.0947
254.1856,-316.0,-1.0852
254.4883,-316.0,-1.07549
254.7897,-316.0,-1.07792
255.0906,-316.0,-1.07853
255.3913,-316.0,-1.06397
255.6915,-316.0,-1.07367
255.9914,-316.0,-1.07145
256.2913,-316.0,-1.0668
256.5935,-316.0,-1.07468
256.8965,-316.0,-1.05346
257.1972,-316.0,-1.06235
257.4971,-316.0,-1.0664
257.7971,-316.0,-1.06114
258.0975,-316.0,-1.05993
258.3976,-316.0,-1.05952
258.6977,-316.0,-1.06215
258.9983,-316.0,-1.05002
259.2991,-316.0,-1.05932
259.599,-316.0,-1.04597
259.9001,-316.0,-1.05265
260.2005,-316.0,-1.03789
260.501,-316.0,-1.03546
260.8023,-316.0,-1.03324
261.1023,-316.0,-1.04678
261.4031,-316.0,-1.03991
261.703,-316.0,-1.05042
262.0042,-316.0,-1.04355
262.3037,-316.0,-1.03506
262.6037,-316.0,-1.03829
262.9037,-316.0,-1.04274
263.2037,-316.0,-1.011
263.5057,-316.0,-1.04921
263.8055,-316.0,-1.01989
264.1062,-316.0,-1.02555
264.4061,-316.0,-1.02555
264.7055,-316.0,-1.02818
265.0058,-316.0,-1.01767
265.3062,-316.0,-1.01706
265.6074,-316.0,-1.03081
265.9075,-316.0,-1.02454
266.2079,-316.0,-1.01767
266.5085,-316.0,-1.01201
266.8097,-316.0,-1.01261
267.1106,-316.0,-1.00372
267.4108,-316.0,-1.03324
267.7112,-316.0,-1.011
268.0107,-316.0,-1.00352
268.3124,-316.0,-1.00311
268.6131,-316.0,-0.99098
268.9133,-316.0,-0.992799
269.2145,-316.0,-0.999471
269.5137,-316.0,-0.993204
269.8163,-316.0,-0.999067
270.1175,-316.0,-1.00938
270.4185,-316.0,-0.99199
270.7193,-316.0,-0.977837
271.0201,-316.0,-0.99381
271.3207,-316.0,-0.999674
271.6223,-316.0,-0.994417
271.9217,-316.0,-0.983701
272.2232,-316.0,-0.99381
272.5237,-316.0,-0.979455
272.8239,-316.0,-0.993204
273.1239,-316.0,-0.981881
273.426,-316.0,-0.986531
273.7263,-316.0,-0.970357
274.0263,-316.0,-0.98087
274.3262,-316.0,-0.964898
274.6259,-316.0,-0.976624
274.9263,-316.0,-0.971974
275.2258,-316.0,-0.970559
275.5263,-316.0,-0.989766
275.8262,-316.0,-0.959641
276.1269,-316.0,-0.969143
276.428,-316.0,-0.970761
276.7284,-316.0,-0.971367
277.0297,-316.0,-0.951149
277.3316,-316.0,-0.956406
277.6327,-316.0,-0.964089
277.934,-316.0,-0.95863
278.2339,-316.0,-0.960652
278.5339,-316.0,-0.960652
278.8346,-316.0,-0.962269
279.134,-316.0,-0.950947
279.434,-316.0,-0.95681
279.734,-316.0,-0.962067
280.034,-316.0,-0.953979
280.3344,-316.0,-0.956204
280.6343,-316.0,-0.936187
280.934,-316.0,-0.951553
281.2344,-316.0,-0.943668
281.5344,-316.0,-0.919001
281.834,-316.0,-0.91981
282.1341,-316.0,-0.941848
282.434,-316.0,-0.933761
282.7341,-316.0,-0.920012
283.0341,-316.0,-0.938007
283.3341,-316.0,-0.941444
283.6341,-316.0,-0.935176
283.9341,-316.0,-0.934772
284.2359,-316.0,-0.929919
284.5377,-316.0,-0.920417
284.8372,-316.0,-0.912936
285.1377,-316.0,-0.917788
285.4385,-316.0,-0.927089
285.7396,-316.0,-0.908083
286.04,-316.0,-0.911925
286.3404,-316.0,-0.917586
286.6415,-316.0,-0.923449
286.9428,-316.0,-0.907274
287.2423,-316.0,-0.909903
287.5427,-316.0,-0.910509
287.8429,-316.0,-0.908083
288.1431,-316.0,-0.910712
288.4447,-316.0,-0.904242
288.744,-316.0,-0.897772
289.0442,-316.0,-0.903433
289.3442,-316.0,-0.907881
289.6441,-316.0,-0.89575
289.9441,-316.0,-0.907477
290.2443,-316.0,-0.898378
290.5442,-316.0,-0.904646
290.8442,-316.0,-0.896559
291.1443,-316.0,-0.901613
291.4442,-316.0,-0.910712
291.7442,-316.0,-0.888673
292.0442,-316.0,-0.892515
292.3448,-316.0,-0.895548
292.6442,-316.0,-0.872498
292.9442,-316.0,-0.887662
293.2442,-316.0,-0.885236
293.5442,-316.0,-0.896356
293.8442,-316.0,-0.882001
294.1442,-316.0,-0.87634
294.4443,-316.0,-0.882001
294.7441,-316.0,-0.892515
295.0468,-316.0,-0.871083
295.3467,-316.0,-0.893324
295.6467,-316.0,-0.882001
295.9464,-316.0,-0.882608
296.2463,-316.0,-0.867242
296.5466,-316.0,-0.873307
296.8479,-316.0,-0.873509
297.1499,-316.0,-0.870072
297.4509,-316.0,-0.853089
297.7501,-316.0,-0.871083
298.0507,-316.0,-0.872296
298.3517,-316.0,-0.869466
298.6533,-316.0,-0.854908
298.9532,-316.0,-0.87452
299.2541,-316.0,-0.872296
299.5543,-316.0,-0.851673
299.8543,-316.0,-0.857941
300.1556,-316.0,-0.867242
300.4567,-316.0,-0.855717
300.7575,-316.0,-0.846821
301.0585,-316.0,-0.857537
301.3592,-316.0,-0.855313
301.662,-316.0,-0.838127
301.9616,-316.0,-0.857537
302.2621,-316.0,-0.845405
302.5631,-316.0,-0.847832
302.8642,-316.0,-0.852886
303.1644,-316.0,-0.845203
303.4644,-316.0,-0.84399
303.7644,-316.0,-0.838127
304.0665,-316.0,-0.841968
304.3669,-316.0,-0.834083
304.6666,-316.0,-0.827411
304.9667,-316.0,-0.847023
305.2668,-316.0,-0.840553
305.5669,-316.0,-0.838329
305.8662,-316.0,-0.85046
306.1674,-316.0,-0.838127
306.4693,-316.0,-0.831455
306.7697,-316.0,-0.841362
307.0711,-316.0,-0.823974
307.3703,-316.0,-0.826602
307.6718,-316.0,-0.84581
307.9722,-316.0,-0.828624
308.2717,-316.0,-0.838531
308.5722,-316.0,-0.821143
308.8745,-316.0,-0.842373
309.1745,-316.0,-0.82458
309.4752,-316.0,-0.826602
309.7745,-316.0,-0.82175
310.0745,-316.0,-0.822761
310.3745,-316.0,-0.810427
310.6746,-316.0,-0.820334
310.9745,-316.0,-0.813258
311.276,-316.0,-0.817706
311.5759,-316.0,-0.814269
311.876,-316.0,-0.81528
312.1767,-316.0,-0.809619
312.479,-316.0,-0.804159
312.7787,-316.0,-0.80052
313.0804,-316.0,-0.800722
313.3805,-316.0,-0.806586
313.6808,-316.0,-0.816897
313.9822,-316.0,-0.806586
314.2832,-316.0,-0.792433
314.5824,-316.0,-0.800722
314.8834,-316.0,-0.80881
315.1852,-316.0,-0.806181
315.4846,-316.0,-0.801127
315.7863,-316.0,-0.800924
316.0856,-316.0,-0.799105
316.3856,-316.0,-0.799711
316.6874,-316.0,-0.800924
316.9879,-316.0,-0.800318
317.2883,-316.0,-0.79405
317.5892,-316.0,-0.804968
317.8896,-316.0,-0.79122
318.1899,-316.0,-0.800924
318.4908,-316.0,-0.793848
318.7911,-316.0,-0.790815
319.0908,-316.0,-0.786771
319.391,-316.0,-0.796072
319.6936,-316.0,-0.791826
319.9946,-316.0,-0.79405
320.2946,-316.0,-0.7987
320.5946,-316.0,-0.785558
320.8946,-316.0,-0.780504
321.1949,-316.0,-0.776662
321.4947,-316.0,-0.783941
321.7949,-316.0,-0.784547
322.0966,-316.0,-0.780302
322.3981,-316.0,-0.778077
322.6993,-316.0,-0.776056
322.9998,-316.0,-0.778077
323.3005,-316.0,-0.76817
323.6016,-316.0,-0.781312
323.902,-316.0,-0.766553
324.2024,-316.0,-0.770394
324.5025,-316.0,-0.753815
324.8032,-316.0,-0.76352
325.1032,-316.0,-0.779493
325.4047,-316.0,-0.761903
325.7048,-316.0,-0.770597
326.0046,-316.0,-0.761094
326.3063,-316.0,-0.757252
326.6058,-316.0,-0.765138
326.9063,-316.0,-0.749367
327.2068,-316.0,-0.766755
327.5072,-316.0,-0.755433
327.8072,-316.0,-0.763924
328.1068,-316.0,-0.761094
328.407,-316.0,-0.754826
328.7072,-316.0,-0.749974
329.0073,-316.0,-0.761094
329.3073,-316.0,-0.759476
329.6071,-316.0,-0.753006
329.9067,-316.0,-0.740066
330.2068,-316.0,-0.7524
330.507,-316.0,-0.751187
330.8072,-316.0,-0.754826
331.1085,-316.0,-0.752804
331.408,-316.0,-0.751187
331.7098,-316.0,-0.740471
332.0103,-316.0,-0.742088
332.3109,-316.0,-0.753209
332.6116,-316.0,-0.749165
332.9118,-316.0,-0.741684
333.2148,-316.0,-0.74128
333.5174,-316.0,-0.748558
333.8183,-316.0,-0.744515
334.1183,-316.0,-0.740471
334.4184,-316.0,-0.735416
334.7193,-316.0,-0.731777
335.0196,-316.0,-0.738853
335.3191,-316.0,-0.723892
335.6202,-316.0,-0.745121
335.9208,-316.0,-0.741077
336.2218,-316.0,-0.723892
336.5226,-316.0,-0.735618
336.8223,-316.0,-0.733799
337.1217,-316.0,-0.722274
337.4237,-316.0,-0.723892
337.7247,-316.0,-0.717219
338.025,-316.0,-0.730159
338.3249,-316.0,-0.733596
338.625,-316.0,-0.718837
338.9265,-316.0,-0.713176
339.2274,-316.0,-0.729553
339.527,-316.0,-0.722072
339.8284,-316.0,-0.728744
340.1279,-316.0,-0.711154
340.4296,-316.0,-0.719646
340.7298,-316.0,-0.727127
341.0303,-316.0,-0.713984
341.3303,-316.0,-0.719039
341.6304,-316.0,-0.711963
341.9303,-316.0,-0.708121
342.2313,-316.0,-0.722678
342.5314,-316.0,-0.718028
342.833,-316.0,-0.704886
343.1337,-316.0,-0.7154
343.4336,-316.0,-0.712569
343.7335,-316.0,-0.710749
344.0352,-316.0,-0.705493
344.335,-316.0,-0.708525
344.6351,-316.0,-0.715804
344.9357,-316.0,-0.693564
345.235,-316.0,-0.706099
345.535,-316.0,-0.705897
345.8351,-316.0,-0.712569
346.1351,-316.0,-0.697607
346.4352,-316.0,-0.703673
346.735,-316.0,-0.709334
347.0351,-316.0,-0.689924
347.3351,-316.0,-0.704684
347.6352,-316.0,-0.712569
347.9352,-316.0,-0.696394
348.2352,-316.0,-0.69882
348.5352,-316.0,-0.700236
348.8351,-316.0,-0.69882
349.1352,-316.0,-0.694979
349.4365,-316.0,-0.692755
349.7373,-316.0,-0.693766
350.0376,-316.0,-0.69235
350.3387,-316.0,-0.691744
350.6392,-316.0,-0.702258
350.9398,-316.0,-0.692553
351.2398,-316.0,-0.679208
351.5409,-316.0,-0.693564
351.841,-316.0,-0.686083
352.142,-316.0,-0.68487
352.443,-316.0,-0.683656
352.7434,-316.0,-0.682039
353.0438,-316.0,-0.689318
353.3433,-316.0,-0.684465
353.644,-316.0,-0.680421
353.9448,-316.0,-0.685678
354.2444,-316.0,-0.678197
354.544,-316.0,-0.675165
354.8457,-316.0,-0.679208
355.1459,-316.0,-0.67658
355.446,-316.0,-0.685476
355.7474,-316.0,-0.673749
356.0476,-316.0,-0.68305
356.3475,-316.0,-0.675569
356.6475,-316.0,-0.672941
356.9477,-316.0,-0.676176
357.2477,-316.0,-0.667482
357.5477,-316.0,-0.666875
357.8475,-316.0,-0.669706
358.1476,-316.0,-0.669706
358.4477,-316.0,-0.67193
358.7478,-316.0,-0.664044
359.0478,-316.0,-0.668897
359.3473,-316.0,-0.659799
359.6478,-316.0,-0.672738
359.9471,-316.0,-0.658788
360.2473,-316.0,-0.66546
360.5483,-316.0,-0.659394
360.8486,-316.0,-0.664044
361.1488,-316.0,-0.667279
361.449,-316.0,-0.668897
361.7499,-316.0,-0.647667
362.0511,-316.0,-0.661214
362.3517,-316.0,-0.655148
362.6526,-316.0,-0.652722
362.9526,-316.0,-0.658181
363.2539,-316.0,-0.656968
363.5554,-316.0,-0.647465
363.8554,-316.0,-0.654137
364.1554,-316.0,-0.665864
364.4573,-316.0,-0.667684
364.7579,-316.0,-0.649487
365.0579,-316.0,-0.654542
365.3578,-316.0,-0.64423
365.6575,-316.0,-0.64423
365.9576,-316.0,-0.654137
366.2581,-316.0,-0.669706
366.5576,-316.0,-0.646859
366.8574,-316.0,-0.645645
367.159,-316.0,-0.648072
367.4614,-316.0,-0.636951
367.7621,-316.0,-0.632301
368.0628,-316.0,-0.635738
368.3638,-316.0,-0.642613
368.6642,-316.0,-0.6414
368.9654,-316.0,-0.64423
369.2654,-316.0,-0.646454
369.5655,-316.0,-0.643826
369.8655,-316.0,-0.636143
370.1655,-316.0,-0.642815
370.4655,-316.0,-0.636547
370.7669,-316.0,-0.639984
371.0669,-316.0,-0.644635
371.3663,-316.0,-0.632301
371.668,-316.0,-0.638165
371.968,-316.0,-0.631897
372.2677,-316.0,-0.63776
372.568,-316.0,-0.630279
372.868,-316.0,-0.630481
373.168,-316.0,-0.62846
373.4679,-316.0,-0.636749
373.768,-316.0,-0.632503
374.0694,-316.0,-0.649891
374.3712,-316.0,-0.618957
374.6719,-316.0,-0.615722
374.9732,-316.0,-0.621383
375.2729,-316.0,-0.627044
375.5726,-316.0,-0.617137
375.8741,-316.0,-0.623203
376.1749,-316.0,-0.622394
376.4744,-316.0,-0.622192
376.7757,-316.0,-0.617946
377.0757,-316.0,-0.634323
377.3757,-316.0,-0.62017
377.6757,-316.0,-0.6137
377.9764,-316.0,-0.629875
378.2777,-316.0,-0.620574
378.5781,-316.0,-0.630684
378.8779,-316.0,-0.643017
379.1781,-316.0,-0.619766
379.4779,-316.0,-0.622192
379.7781,-316.0,-0.617137
380.078,-316.0,-0.611072
380.3782,-316.0,-0.624416
380.6781,-316.0,-0.613296
380.9803,-316.0,-0.613093
381.2798,-316.0,-0.616126
381.5824,-316.0,-0.624416
381.8834,-316.0,-0.62482
382.1846,-316.0,-0.613902
382.4861,-316.0,-0.617744
382.7867,-316.0,-0.616935
383.0869,-316.0,-0.595705
383.3882,-316.0,-0.598132
383.6882,-316.0,-0.597525
383.9879,-316.0,-0.596312
384.2909,-316.0,-0.612891
384.5917,-316.0,-0.610869
384.8927,-316.0,-0.607432
385.1935,-316.0,-0.618957
385.4935,-316.0,-0.609454
385.793,-316.0,-0.600962
386.094,-316.0,-0.596312
386.3955,-316.0,-0.595099
386.6953,-316.0,-0.59894
386.9948,-316.0,-0.596716
387.2952,-316.0,-0.598334
387.5954,-316.0,-0.591055
387.8954,-316.0,-0.593886
388.1954,-316.0,-0.599143
388.4947,-316.0,-0.608443
388.7952,-316.0,-0.600154
389.0954,-316.0,-0.589236
389.3947,-316.0,-0.599143
389.697,-316.0,-0.585596
389.998,-316.0,-0.594695
390.2991,-316.0,-0.59611
390.5987,-316.0,-0.580946
390.9007,-316.0,-0.588427
391.2016,-316.0,-0.586405
391.503,-316.0,-0.582361
391.8032,-316.0,-0.592066
392.1034,-316.0,-0.592268
392.4046,-316.0,-0.590651
392.7043,-316.0,-0.597323
393.0042,-316.0,-0.587416
393.3048,-316.0,-0.59611
393.6048,-316.0,-0.59611
393.9055,-316.0,-0.595503
394.2049,-316.0,-0.577307
394.506,-316.0,-0.586001
394.8067,-316.0,-0.576093
395.1081,-316.0,-0.582563
395.4082,-316.0,-0.572858
395.7084,-316.0,-0.572858
396.0096,-316.0,-0.582159
396.1096,-316.0,-0.586607