File: Tinius-Olsen_Levitation_force/Preprocessed_measures/20231204_1651GDBCOs2_sl6_4.txt.csv
Time(s),Displacement(mm),Force(N)
0.0,-266.958,3.10006
0.1217,-267.338,3.11461
0.2214,-268.026,3.09217
0.3212,-268.676,3.08166
0.4219,-269.359,3.06225
0.522,-270.043,3.03859
0.6229,-270.692,3.03718
0.7224,-271.376,3.03354
0.822,-272.026,3.02545
0.9225,-272.709,3.05396
1.0225,-273.358,3.05436
1.123,-274.042,3.03718
1.223,-274.691,3.03758
1.323,-275.375,3.04486
1.4233,-276.024,3.06427
1.5245,-276.708,3.06791
1.6243,-277.392,3.06043
1.724,-278.041,3.06447
1.8248,-278.725,3.07074
1.9246,-279.374,3.08408
2.0259,-280.058,3.09662
2.1253,-280.707,3.08934
2.2257,-281.391,3.09884
2.3256,-282.04,3.11057
2.4268,-282.724,3.12108
2.5267,-283.408,3.12149
2.6272,-284.057,3.12654
2.7277,-284.741,3.14353
2.827,-285.39,3.16152
2.9288,-286.074,3.16981
3.0285,-286.757,3.18356
3.1285,-287.406,3.18902
3.2299,-288.09,3.19569
3.3296,-288.74,3.21288
3.4298,-289.423,3.23026
3.5309,-290.072,3.22278
3.6311,-290.756,3.23512
3.7319,-291.44,3.24482
3.8326,-292.089,3.25958
3.9322,-292.775,3.26848
4.033,-293.424,3.28951
4.1335,-294.108,3.29031
4.2345,-294.792,3.3075
4.3358,-295.441,3.30932
4.4342,-296.125,3.30649
4.5352,-296.774,3.32024
4.6369,-297.458,3.30831
4.737,-298.141,3.31154
4.8371,-298.791,3.29941
4.9389,-299.474,3.28789
5.039,-300.158,3.27818
5.138,-300.807,3.24523
5.2389,-301.457,3.19347
5.3388,-302.143,3.15525
5.4382,-302.793,3.08995
5.539,-303.476,2.99674
5.6396,-304.128,2.90009
5.7399,-304.814,2.77373
5.8405,-305.497,2.61562
5.9412,-306.147,2.43567
6.0422,-306.83,2.19932
6.143,-307.514,1.91383
6.2437,-308.163,1.57032
6.343,-308.847,1.17383
6.443,-309.496,0.701521
6.5438,-310.18,0.137826
6.6431,-310.829,-0.532421
6.7438,-311.513,-1.31893
6.8432,-312.162,-2.23847
6.9432,-312.846,-3.32845
7.0436,-313.496,-4.56685
7.1431,-314.179,-5.99812
7.2441,-314.828,-7.63441
7.3444,-315.512,-9.44075
7.4444,-316.161,-11.5275
7.5441,-316.779,-13.3506
7.6447,-316.801,-13.2855
7.7444,-316.801,-13.1598
7.8443,-316.801,-13.0882
7.9443,-316.801,-13.0306
8.0443,-316.8,-12.9944
8.1443,-316.8,-12.9602
8.2451,-316.8,-12.9323
8.3451,-316.8,-12.9068
8.4463,-316.8,-12.8947
8.5461,-316.8,-12.8696
8.6471,-316.8,-12.8537
8.7475,-316.8,-12.8419
8.848,-316.8,-12.826
8.9488,-316.8,-12.8128
9.049,-316.8,-12.7962
9.1483,-316.8,-12.7898
9.2499,-316.8,-12.7693
9.3494,-316.8,-12.7675
9.449,-316.8,-12.7558
9.5496,-316.8,-12.7546
9.6491,-316.8,-12.7414
9.7496,-316.8,-12.735
9.8498,-316.8,-12.7295
9.951,-316.8,-12.721
10.0501,-316.8,-12.722
10.151,-316.8,-12.7121
10.2517,-316.8,-12.7014
10.351,-316.8,-12.7038
10.4517,-316.8,-12.6945
10.5515,-316.8,-12.6913
10.6514,-316.8,-12.6828
10.7517,-316.8,-12.6729
10.852,-316.8,-12.6676
10.9511,-316.8,-12.6666
11.0517,-316.8,-12.6662
11.1521,-316.8,-12.6583
11.2521,-316.8,-12.6492
11.3521,-316.8,-12.6442
11.4531,-316.8,-12.6454
11.5527,-316.8,-12.631
11.6524,-316.8,-12.6391
11.7528,-316.8,-12.6258
11.8529,-316.8,-12.6169
11.9523,-316.8,-12.6201
12.0527,-316.8,-12.6201
12.152,-316.8,-12.61
12.2521,-316.8,-12.6197
12.3522,-316.8,-12.6139
12.4526,-316.8,-12.6066
12.553,-316.8,-12.6044
12.6533,-316.8,-12.6042
12.7537,-316.8,-12.5979
12.8534,-316.8,-12.6056
12.955,-316.8,-12.5979
13.0551,-316.8,-12.5902
13.1559,-316.8,-12.5779
13.2553,-316.8,-12.5809
13.3555,-316.8,-12.5821
13.4556,-316.8,-12.5793
13.5552,-316.8,-12.5744
13.6562,-316.8,-12.567
13.7569,-316.8,-12.5601
13.8571,-316.8,-12.5597
13.958,-316.8,-12.5514
14.0572,-316.8,-12.5483
14.1577,-316.8,-12.5524
14.2576,-316.8,-12.5461
14.3571,-316.8,-12.5435
14.4573,-316.8,-12.532
14.5571,-316.8,-12.5356
14.6578,-316.8,-12.5297
14.7575,-316.8,-12.5419
14.8573,-316.8,-12.5328
14.9577,-316.8,-12.5279
15.0572,-316.8,-12.5247
15.1575,-316.8,-12.5213
15.2575,-316.8,-12.5146
15.3571,-316.8,-12.5259
15.4574,-316.8,-12.5188
15.5571,-316.8,-12.5154
15.6573,-316.8,-12.5144
15.7571,-316.8,-12.5188
15.8578,-316.8,-12.5103
15.9576,-316.8,-12.515
16.0576,-316.8,-12.5043
16.1572,-316.8,-12.5174
16.2576,-316.8,-12.4988
16.3576,-316.8,-12.515
16.459,-316.8,-12.5105
16.559,-316.8,-12.5071
16.6589,-316.8,-12.4996
16.7589,-316.8,-12.4972
16.859,-316.8,-12.5077
16.9591,-316.8,-12.4944
17.061,-316.8,-12.502
17.1603,-316.8,-12.4946
17.2611,-316.8,-12.4968
17.3613,-316.8,-12.4845
17.4618,-316.8,-12.4927
17.5626,-316.8,-12.4883
17.6632,-316.8,-12.4861
17.7631,-316.8,-12.4828
17.8633,-316.8,-12.4774
17.965,-316.8,-12.4758
18.0645,-316.8,-12.4774
18.1644,-316.8,-12.4834
18.2661,-316.8,-12.4721
18.3669,-316.8,-12.4764
18.4666,-316.8,-12.4733
18.5666,-316.8,-12.4679
18.6661,-316.8,-12.4648
18.7682,-316.8,-12.4653
18.8679,-316.8,-12.4713
18.9689,-316.8,-12.464
19.0698,-316.8,-12.4636
19.1693,-316.8,-12.4636
19.2699,-316.8,-12.4614
19.3706,-316.8,-12.4566
19.472,-316.8,-12.4564
19.573,-316.8,-12.456
19.6721,-316.8,-12.4547
19.774,-316.8,-12.456
19.8737,-316.8,-12.4555
19.9736,-316.8,-12.4481
20.0733,-316.8,-12.4507
20.1738,-316.8,-12.4471
20.2736,-316.8,-12.4466
20.3738,-316.8,-12.444
20.4756,-316.8,-12.4398
20.5744,-316.8,-12.4373
20.6745,-316.8,-12.4436
20.7743,-316.8,-12.4501
20.8743,-316.8,-12.4408
20.975,-316.8,-12.4386
21.0761,-316.8,-12.4396
21.1758,-316.8,-12.4412
21.2768,-316.8,-12.4402
21.3765,-316.8,-12.4378
21.4778,-316.8,-12.4376
21.5783,-316.8,-12.443
21.6782,-316.8,-12.4355
21.7787,-316.8,-12.44
21.8786,-316.8,-12.4392
21.9788,-316.8,-12.4327
22.0789,-316.8,-12.4315
22.179,-316.8,-12.4343
22.2789,-316.8,-12.4276
22.3787,-316.8,-12.424
22.4791,-316.8,-12.4222
22.5782,-316.8,-12.424
22.6793,-316.8,-12.4206
22.7795,-316.8,-12.4206
22.8803,-316.8,-12.4157
22.981,-316.8,-12.4157
23.0815,-316.8,-12.4226
23.1822,-316.8,-12.4096
23.2829,-316.8,-12.4153
23.3833,-316.8,-12.4127
23.4846,-316.8,-12.4179
23.5845,-316.8,-12.4141
23.6844,-316.8,-12.4145
23.7851,-316.8,-12.4084
23.8844,-316.8,-12.4131
23.9848,-316.8,-12.4096
24.0846,-316.8,-12.404
24.1843,-316.8,-12.405
24.2844,-316.8,-12.405
24.3861,-316.8,-12.402
24.4863,-316.8,-12.4058
24.5869,-316.8,-12.4086
24.6873,-316.8,-12.3961
24.7874,-316.8,-12.3945
24.8872,-316.8,-12.3963
24.9889,-316.8,-12.3995
25.0885,-316.8,-12.3991
25.1882,-316.8,-12.3933
25.2883,-316.8,-12.3965
25.3882,-316.8,-12.3941
25.4883,-316.8,-12.4038
25.59,-316.8,-12.3965
25.6912,-316.8,-12.3953
25.7915,-316.8,-12.4012
25.8914,-316.8,-12.3991
25.9923,-316.8,-12.3997
26.0934,-316.8,-12.3943
26.1943,-316.8,-12.3973
26.2944,-316.8,-12.3947
26.3958,-316.8,-12.3927
26.4952,-316.8,-12.3953
26.5958,-316.8,-12.3908
26.6955,-316.8,-12.3937
26.7952,-316.8,-12.3878
26.8965,-316.8,-12.3884
26.9966,-316.8,-12.387
27.098,-316.8,-12.3898
27.1974,-316.8,-12.386
27.2992,-316.8,-12.3836
27.3996,-316.8,-12.3819
27.5011,-316.8,-12.3876
27.602,-316.8,-12.3834
27.7015,-316.8,-12.3801
27.8031,-316.8,-12.3826
27.9029,-316.8,-12.3805
28.0027,-316.8,-12.3777
28.1032,-316.8,-12.3787
28.2033,-316.8,-12.3779
28.305,-316.8,-12.37
28.4046,-316.8,-12.3739
28.5048,-316.8,-12.3733
28.6074,-316.8,-12.3674
28.7067,-316.8,-12.3688
28.8063,-316.8,-12.3664
28.9062,-316.8,-12.367
29.0066,-316.8,-12.3745
29.1069,-316.8,-12.372
29.2067,-316.8,-12.3765
29.3081,-316.8,-12.3737
29.409,-316.8,-12.37
29.5096,-316.8,-12.3745
29.6099,-316.8,-12.3672
29.7121,-316.8,-12.367
29.8118,-316.8,-12.3696
29.9113,-316.8,-12.3633
30.0131,-316.8,-12.37
30.1126,-316.8,-12.3743
30.2128,-316.8,-12.3706
30.3132,-316.8,-12.3726
30.4141,-316.8,-12.3678
30.514,-316.8,-12.3666
30.614,-316.8,-12.3623
30.715,-316.8,-12.3605
30.8146,-316.8,-12.3638
30.9146,-316.8,-12.3613
31.0145,-316.8,-12.3605
31.1145,-316.8,-12.3629
31.2146,-316.8,-12.364
31.3146,-316.8,-12.3605
31.4144,-316.8,-12.3571
31.5146,-316.8,-12.3512
31.6153,-316.8,-12.3551
31.7163,-316.8,-12.3557
31.8172,-316.8,-12.354
31.9178,-316.8,-12.351
32.0172,-316.8,-12.3551
32.118,-316.8,-12.3545
32.219,-316.8,-12.3579
32.3185,-316.8,-12.3571
32.4196,-316.8,-12.3593
32.5201,-316.8,-12.354
32.6202,-316.8,-12.3512
32.7196,-316.8,-12.3466
32.8197,-316.8,-12.3508
32.9199,-316.8,-12.3528
33.0198,-316.8,-12.3456
33.1201,-316.8,-12.3439
33.2201,-316.8,-12.3421
33.3196,-316.8,-12.3326
33.4201,-316.8,-12.3334
33.52,-316.8,-12.3336
33.6203,-316.8,-12.3377
33.7206,-316.8,-12.3383
33.8212,-316.8,-12.3377
33.9215,-316.8,-12.3427
34.0213,-316.8,-12.3354
34.1218,-316.8,-12.3409
34.2243,-316.8,-12.3439
34.3233,-316.8,-12.334
34.4234,-316.8,-12.334
34.5233,-316.8,-12.3373
34.6234,-316.8,-12.3344
34.7238,-316.8,-12.3352
34.8235,-316.8,-12.3326
34.9249,-316.8,-12.3324
35.0246,-316.8,-12.3346
35.1244,-316.8,-12.3304
35.2261,-316.8,-12.3282
35.3275,-316.8,-12.3266
35.4266,-316.8,-12.3318
35.527,-316.8,-12.3268
35.6263,-316.8,-12.3308
35.7269,-316.8,-12.3284
35.8266,-316.8,-12.3272
35.9267,-316.8,-12.3219
36.0272,-316.8,-12.3237
36.1283,-316.8,-12.3223
36.228,-316.8,-12.3233
36.3291,-316.8,-12.3219
36.4302,-316.8,-12.3191
36.5303,-316.8,-12.3201
36.632,-316.8,-12.3225
36.7319,-316.8,-12.317
36.8332,-316.8,-12.3156
36.9341,-316.8,-12.3189
37.0353,-316.8,-12.3185
37.1358,-316.8,-12.3217
37.2372,-316.8,-12.3144
37.337,-316.8,-12.3219
37.4366,-316.8,-12.317
37.5367,-316.8,-12.3156
37.6367,-316.8,-12.3247
37.7367,-316.8,-12.3209
37.8364,-316.8,-12.3189
37.9375,-316.8,-12.3144
38.0375,-316.8,-12.3146
38.1392,-316.8,-12.312
38.2403,-316.8,-12.3122
38.3409,-316.8,-12.3126
38.4415,-316.8,-12.3207
38.542,-316.8,-12.3073
38.6417,-316.8,-12.3061
38.7417,-316.8,-12.31
38.8413,-316.8,-12.3136
38.9423,-316.8,-12.313
39.0433,-316.8,-12.3152
39.1433,-316.8,-12.316
39.2434,-316.8,-12.3094
39.3441,-316.8,-12.3084
39.4441,-316.8,-12.3108
39.5436,-316.8,-12.3094
39.6452,-316.8,-12.3057
39.7447,-316.8,-12.3094
39.8446,-316.8,-12.3079
39.9443,-316.8,-12.3084
40.0445,-316.8,-12.3029
40.1446,-316.8,-12.3061
40.2447,-316.8,-12.3025
40.3443,-316.8,-12.3075
40.4447,-316.8,-12.3063
40.5447,-316.8,-12.3045
40.6446,-316.8,-12.2995
40.7452,-316.8,-12.3047
40.8447,-316.8,-12.3039
40.9451,-316.8,-12.2978
41.0446,-316.8,-12.3017
41.1451,-316.8,-12.2982
41.2447,-316.8,-12.2995
41.3447,-316.8,-12.2974
41.4447,-316.8,-12.2966
41.5447,-316.8,-12.3005
41.6447,-316.8,-12.3011
41.7447,-316.8,-12.2966
41.8444,-316.8,-12.2946
41.9445,-316.8,-12.2956
42.0446,-316.8,-12.2914
42.1447,-316.8,-12.2926
42.2447,-316.8,-12.2906
42.3447,-316.8,-12.2843
42.4449,-316.8,-12.294
42.5447,-316.8,-12.2823
42.6452,-316.8,-12.2875
42.745,-316.8,-12.2877
42.8446,-316.8,-12.2841
42.9451,-316.8,-12.2914
43.0462,-316.8,-12.2887
43.1453,-316.8,-12.2833
43.2462,-316.8,-12.2825
43.3467,-316.8,-12.2918
43.4466,-316.8,-12.2863
43.5467,-316.8,-12.2827
43.6464,-316.8,-12.2843
43.7471,-316.8,-12.2796
43.8469,-316.8,-12.2837
43.9483,-316.8,-12.2823
44.0483,-316.8,-12.28
44.1478,-316.8,-12.2859
44.2493,-316.8,-12.2807
44.3503,-316.8,-12.2839
44.4504,-316.8,-12.2831
44.5513,-316.8,-12.2752
44.6517,-316.8,-12.2823
44.7523,-316.8,-12.2819
44.8522,-316.8,-12.2819
44.9531,-316.8,-12.2837
45.0531,-316.8,-12.277
45.153,-316.8,-12.2736
45.2541,-316.8,-12.2756
45.3551,-316.8,-12.2796
45.4534,-316.8,-12.2756
45.5544,-316.8,-12.2766
45.6545,-316.8,-12.2817
45.7544,-316.8,-12.2732
45.8546,-316.8,-12.279
45.9546,-316.8,-12.2819
46.0545,-316.8,-12.28
46.1563,-316.8,-12.279
46.2568,-316.8,-12.2748
46.3566,-316.8,-12.2788
46.4583,-316.8,-12.2817
46.5581,-316.8,-12.2794
46.6581,-316.8,-12.2776
46.7582,-316.8,-12.2758
46.8582,-316.8,-12.28
46.9577,-316.8,-12.2776
47.0575,-316.8,-12.2798
47.1583,-316.8,-12.2788
47.2574,-316.8,-12.2709
47.3583,-316.8,-12.2707
47.4575,-316.8,-12.2726
47.5578,-316.8,-12.2651
47.6585,-316.8,-12.2728
47.759,-316.8,-12.2687
47.86,-316.8,-12.2736
47.9599,-316.8,-12.2728
48.0599,-316.8,-12.2754
48.1608,-316.8,-12.2683
48.2613,-316.8,-12.2768
48.3604,-316.8,-12.2772
48.4605,-316.8,-12.2754
48.5615,-316.8,-12.2661
48.6619,-316.8,-12.2718
48.762,-316.8,-12.2663
48.8622,-316.8,-12.2695
48.9619,-316.8,-12.2667
49.0615,-316.8,-12.2683
49.1623,-316.8,-12.2695
49.2616,-316.8,-12.2661
49.3619,-316.8,-12.2602
49.4615,-316.8,-12.2645
49.5621,-316.8,-12.2673
49.6643,-316.8,-12.2627
49.7653,-316.8,-12.2651
49.8647,-316.8,-12.2582
49.9644,-316.8,-12.2619
50.0652,-316.8,-12.2629
50.1653,-316.8,-12.2677
50.2648,-316.8,-12.2625
50.3663,-316.8,-12.2645
50.4664,-316.8,-12.2659
50.5665,-316.8,-12.2556
50.6683,-316.8,-12.2509
50.7681,-316.8,-12.257
50.8684,-316.8,-12.2511
50.9699,-316.8,-12.2564
51.0705,-316.8,-12.2574
51.1709,-316.8,-12.2501
51.271,-316.8,-12.2588
51.3723,-316.8,-12.2647
51.4715,-316.8,-12.2497
51.572,-316.8,-12.2511
51.6717,-316.8,-12.2536
51.7726,-316.8,-12.2554
51.8728,-316.8,-12.2578
51.9732,-316.8,-12.2501
52.0738,-316.8,-12.2558
52.1749,-316.8,-12.2602
52.2747,-316.8,-12.2586
52.3746,-316.8,-12.253
52.4744,-316.8,-12.2544
52.5753,-316.8,-12.2505
52.6754,-316.8,-12.2548
52.7746,-316.8,-12.2473
52.8744,-316.8,-12.2513
52.9754,-316.8,-12.2505
53.0747,-316.8,-12.2556
53.1763,-316.8,-12.2443
53.2761,-316.8,-12.2481
53.3759,-316.8,-12.2511
53.4759,-316.8,-12.2507
53.5774,-316.8,-12.2467
53.6784,-316.8,-12.2467
53.7776,-316.8,-12.254
53.8775,-316.8,-12.2481
53.9795,-316.8,-12.2445
54.0806,-316.8,-12.2495
54.1809,-316.8,-12.2441
54.2817,-316.8,-12.2443
54.3825,-316.8,-12.2437
54.4831,-316.8,-12.2479
54.583,-316.8,-12.2485
54.6833,-316.8,-12.2485
54.7828,-316.8,-12.2443
54.883,-316.8,-12.2457
54.9824,-316.8,-12.2475
55.0825,-316.8,-12.2461
55.1827,-316.8,-12.2461
55.2828,-316.8,-12.2447
55.3833,-316.8,-12.2459
55.4842,-316.8,-12.2366
55.5839,-316.8,-12.2473
55.6849,-316.8,-12.241
55.7844,-316.8,-12.2441
55.8848,-316.8,-12.2384
55.9848,-316.8,-12.2422
56.0848,-316.8,-12.2402
56.1846,-316.8,-12.2374
56.2848,-316.8,-12.2384
56.3845,-316.8,-12.2392
56.4846,-316.8,-12.2386
56.5863,-316.8,-12.241
56.6868,-316.8,-12.242
56.7869,-316.8,-12.2414
56.887,-316.8,-12.2435
56.9876,-316.8,-12.2394
57.088,-316.8,-12.2418
57.1883,-316.8,-12.2394
57.2883,-316.8,-12.2358
57.3874,-316.8,-12.2354
57.4885,-316.8,-12.2305
57.5879,-316.8,-12.2299
57.6882,-316.8,-12.2384
57.7877,-316.8,-12.2323
57.8895,-316.8,-12.2354
57.9898,-316.8,-12.2325
58.0898,-316.8,-12.2344
58.1896,-316.8,-12.2362
58.2899,-316.8,-12.2366
58.3903,-316.8,-12.2384
58.4902,-316.8,-12.2301
58.5896,-316.8,-12.2293
58.6903,-316.8,-12.2342
58.7902,-316.8,-12.2321
58.8896,-316.8,-12.2265
58.9926,-316.8,-12.2303
59.0917,-316.8,-12.2307
59.1924,-316.8,-12.223
59.2926,-316.8,-12.224
59.3932,-316.8,-12.2273
59.4927,-316.8,-12.2309
59.594,-316.8,-12.2287
59.6943,-316.8,-12.2249
59.7936,-316.8,-12.2261
59.8936,-316.8,-12.2244
59.9949,-316.8,-12.2283
60.0948,-316.8,-12.2259
60.1949,-316.8,-12.2253
60.2947,-316.8,-12.2253
60.3945,-316.8,-12.2269
60.496,-316.8,-12.2244
60.5958,-316.8,-12.2259
60.6958,-316.8,-12.2204
60.7971,-316.8,-12.2212
60.8966,-316.8,-12.2216
60.9972,-316.8,-12.2236
61.0984,-316.8,-12.2226
61.2005,-316.8,-12.2249
61.3001,-316.8,-12.216
61.401,-316.8,-12.2281
61.5014,-316.8,-12.2234
61.6022,-316.8,-12.216
61.7016,-316.8,-12.2192
61.8016,-316.8,-12.2301
61.9035,-316.8,-12.2188
62.004,-316.8,-12.2273
62.1044,-316.8,-12.2214
62.2055,-316.8,-12.221
62.3048,-316.8,-12.2182
62.4047,-316.8,-12.2172
62.5045,-316.8,-12.2174
62.6052,-316.8,-12.2156
62.7045,-316.8,-12.223
62.8054,-316.8,-12.2145
62.9045,-316.8,-12.2172
63.0052,-316.8,-12.2137
63.1049,-316.8,-12.2117
63.2048,-316.8,-12.2069
63.3049,-316.8,-12.2131
63.405,-316.8,-12.2123
63.5046,-316.8,-12.2137
63.6054,-316.8,-12.2145
63.7048,-316.8,-12.2153
63.8046,-316.8,-12.219
63.9054,-316.8,-12.2097
64.0051,-316.8,-12.198
64.1059,-316.8,-12.2069
64.2059,-316.8,-12.2093
64.3059,-316.8,-12.2063
64.4059,-316.8,-12.216
64.5056,-316.8,-12.2026
64.6062,-316.8,-12.204
64.7069,-316.8,-12.2127
64.8073,-316.8,-12.2115
64.9067,-316.8,-12.2065
65.0088,-316.8,-12.202
65.1079,-316.8,-12.205
65.2083,-316.8,-12.2081
65.3083,-316.8,-12.2097
65.4086,-316.8,-12.2046
65.5092,-316.8,-12.2089
65.6086,-316.8,-12.2099
65.7096,-316.8,-12.2036
65.8104,-316.8,-12.2085
65.9102,-316.8,-12.2032
66.01,-316.8,-12.199
66.1097,-316.8,-12.2133
66.2106,-316.8,-12.2099
66.3118,-316.8,-12.2046
66.412,-316.8,-12.2091
66.5125,-316.8,-12.1967
66.6135,-316.8,-12.204
66.7145,-316.8,-12.2052
66.8154,-316.8,-12.2111
66.9145,-316.8,-12.2085
67.0148,-316.8,-12.2105
67.1164,-316.8,-12.2093
67.2165,-316.8,-12.2028
67.3157,-316.8,-12.2032
67.4161,-316.8,-12.2028
67.5171,-316.8,-12.2089
67.6174,-316.8,-12.2119
67.7166,-316.8,-12.2058
67.8177,-316.8,-12.2002
67.9196,-316.8,-12.2
68.0202,-316.8,-12.2008
68.1201,-316.8,-12.1972
68.221,-316.8,-12.1955
68.3225,-316.8,-12.1951
68.4217,-316.8,-12.1953
68.5233,-316.8,-12.2022
68.6227,-316.8,-12.2002
68.7226,-316.8,-12.2018
68.8233,-316.8,-12.2036
68.9233,-316.8,-12.2004
69.0235,-316.8,-12.2002
69.1227,-316.8,-12.2014
69.2245,-316.8,-12.2024
69.3242,-316.8,-12.1986
69.4254,-316.8,-12.2113
69.525,-316.8,-12.2016
69.6246,-316.8,-12.1933
69.7265,-316.8,-12.1939
69.8256,-316.8,-12.1959
69.9262,-316.8,-12.2006
70.0266,-316.8,-12.1963
70.1272,-316.8,-12.1992
70.2272,-316.8,-12.1982
70.3271,-316.8,-12.2014
70.4285,-316.8,-12.1998
70.5285,-316.8,-12.1895
70.628,-316.8,-12.1919
70.7295,-316.8,-12.1949
70.8291,-316.8,-12.1885
70.929,-316.8,-12.1913
71.029,-316.8,-12.1913
71.13,-316.8,-12.1889
71.2301,-316.8,-12.1838
71.3299,-316.8,-12.1915
71.43,-316.8,-12.1931
71.53,-316.8,-12.1931
71.6304,-316.8,-12.1889
71.7313,-316.8,-12.1945
71.8309,-316.8,-12.1972
71.931,-316.8,-12.1969
72.0312,-316.8,-12.187
72.1307,-316.8,-12.1903
72.2316,-316.8,-12.1911
72.3319,-316.8,-12.1927
72.4324,-316.8,-12.2006
72.5316,-316.8,-12.1907
72.6318,-316.8,-12.1907
72.7326,-316.8,-12.1901
72.8316,-316.8,-12.1874
72.9326,-316.8,-12.1965
73.0321,-316.8,-12.1947
73.132,-316.8,-12.1893
73.2332,-316.8,-12.1957
73.3329,-316.8,-12.1832
73.4335,-316.8,-12.1945
73.5336,-316.8,-12.1889
73.6328,-316.8,-12.1887
73.7337,-316.8,-12.1923
73.8338,-316.8,-12.1862
73.9364,-316.8,-12.1862
74.0369,-316.8,-12.1899
74.1373,-316.8,-12.1885
74.2386,-316.8,-12.1862
74.3384,-316.8,-12.1858
74.4382,-316.8,-12.184
74.538,-316.8,-12.1872
74.6377,-316.8,-12.1874
74.738,-316.8,-12.1816
74.8382,-316.8,-12.1887
74.9385,-316.8,-12.1846
75.039,-316.8,-12.1874
75.1391,-316.8,-12.1794
75.2398,-316.8,-12.184
75.3415,-316.8,-12.1866
75.4408,-316.8,-12.182
75.541,-316.8,-12.1864
75.6415,-316.8,-12.1834
75.7426,-316.8,-12.1747
75.8419,-316.8,-12.1806
75.9417,-316.8,-12.1808
76.0424,-316.8,-12.1806
76.1426,-316.8,-12.1763
76.2435,-316.8,-12.1838
76.343,-316.8,-12.1808
76.4446,-316.8,-12.1755
76.5445,-316.8,-12.1802
76.6442,-316.8,-12.1806
76.7437,-316.8,-12.1826
76.845,-316.8,-12.1792
76.9458,-316.8,-12.1767
77.0466,-316.8,-12.1775
77.1476,-316.8,-12.1808
77.2467,-316.8,-12.1761
77.3474,-316.8,-12.1842
77.4471,-316.8,-12.1881
77.5486,-316.8,-12.1775
77.6493,-316.8,-12.1705
77.7486,-316.8,-12.181
77.8504,-316.8,-12.1755
77.9506,-316.8,-12.1755
78.0502,-316.8,-12.1745
78.1501,-316.8,-12.1763
78.2516,-316.8,-12.1777
78.3518,-316.8,-12.1883
78.4518,-316.8,-12.1727
78.5517,-316.8,-12.1765
78.6518,-316.8,-12.1757
78.7535,-316.8,-12.1735
78.8527,-316.8,-12.1783
78.9546,-316.8,-12.1781
79.0542,-316.8,-12.1783
79.1538,-316.8,-12.1771
79.2541,-316.8,-12.1727
79.3538,-316.8,-12.1792
79.4537,-316.8,-12.1747
79.5545,-316.8,-12.1769
79.6551,-316.8,-12.1721
79.7549,-316.8,-12.1816
79.8548,-316.8,-12.1788
79.9548,-316.8,-12.1749
80.0547,-316.8,-12.1757
80.1552,-316.8,-12.1741
80.2554,-316.8,-12.1703
80.355,-316.8,-12.1741
80.455,-316.8,-12.1733
80.555,-316.8,-12.179
80.6558,-316.8,-12.1783
80.7567,-316.8,-12.1729
80.8581,-316.8,-12.1715
80.9594,-316.8,-12.1693
81.0592,-316.8,-12.1739
81.1597,-316.8,-12.1745
81.2599,-316.8,-12.1664
81.3598,-316.8,-12.1723
81.4617,-316.8,-12.1765
81.5626,-316.8,-12.1699
81.6626,-316.8,-12.1755
81.7621,-316.8,-12.1701
81.8635,-316.8,-12.1703
81.9631,-316.8,-12.1735
82.0633,-316.8,-12.1624
82.1628,-316.8,-12.1715
82.264,-316.8,-12.1674
82.3644,-316.8,-12.1684
82.4638,-316.8,-12.1713
82.5637,-316.8,-12.1697
82.6648,-316.8,-12.1727
82.765,-316.8,-12.1735
82.865,-316.8,-12.1727
82.9656,-316.8,-12.1715
83.0649,-316.8,-12.1658
83.1659,-316.8,-12.1563
83.2668,-316.8,-12.164
83.3674,-316.8,-12.1664
83.4672,-316.8,-12.1699
83.5669,-316.8,-12.1668
83.6676,-316.8,-12.1612
83.767,-316.8,-12.1573
83.8684,-316.8,-12.1642
83.9687,-316.8,-12.1618
84.0695,-316.8,-12.1606
84.1688,-316.8,-12.1632
84.2706,-316.8,-12.1602
84.3703,-316.8,-12.1612
84.4703,-316.8,-12.1604
84.5704,-316.8,-12.1638
84.6701,-316.8,-12.1595
84.7698,-316.8,-12.1628
84.8705,-316.8,-12.1636
84.9713,-316.8,-12.1583
85.071,-316.8,-12.1587
85.1707,-316.8,-12.1656
85.2715,-316.8,-12.1634
85.3712,-316.8,-12.1606
85.471,-316.8,-12.1672
85.5707,-316.8,-12.1664
85.6714,-316.8,-12.163
85.7712,-316.8,-12.1636
85.8709,-316.8,-12.1608
85.9726,-316.8,-12.1632
86.072,-316.8,-12.1606
86.1717,-316.8,-12.1557
86.2725,-316.8,-12.1622
86.3736,-316.8,-12.1622
86.4727,-316.8,-12.1608
86.5735,-316.8,-12.1608
86.6732,-316.8,-12.1618
86.7746,-316.8,-12.1606
86.8756,-316.8,-12.1638
86.9754,-316.8,-12.1614
87.0748,-316.8,-12.161
87.1748,-316.8,-12.1577
87.2755,-316.8,-12.1638
87.3767,-316.8,-12.1614
87.476,-316.8,-12.1602
87.5764,-316.8,-12.168
87.6758,-316.8,-12.1517
87.776,-316.8,-12.1606
87.8758,-316.8,-12.1561
87.9758,-316.8,-12.1606
88.0768,-316.8,-12.1565
88.1773,-316.8,-12.1573
88.2773,-316.8,-12.1535
88.377,-316.8,-12.1519
88.4768,-316.8,-12.1539
88.5772,-316.8,-12.1622
88.6777,-316.8,-12.1624
88.7773,-316.8,-12.1616
88.8787,-316.8,-12.1559
88.9784,-316.8,-12.1616
89.0781,-316.8,-12.1549
89.1791,-316.8,-12.1515
89.2799,-316.8,-12.1476
89.3797,-316.8,-12.1577
89.4817,-316.8,-12.1486
89.5814,-316.8,-12.1474
89.6816,-316.8,-12.1393
89.7816,-316.8,-12.1488
89.8808,-316.8,-12.1484
89.9816,-316.8,-12.1434
90.0807,-316.8,-12.1474
90.1814,-316.8,-12.1484
90.2811,-316.8,-12.1456
90.3807,-316.8,-12.1466
90.4811,-316.8,-12.1413
90.5808,-316.8,-12.1387
90.6815,-316.8,-12.1409
90.7808,-316.8,-12.1452
90.8814,-316.8,-12.1432
90.9827,-316.8,-12.1448
91.0821,-316.8,-12.1422
91.1827,-316.8,-12.1422
91.2826,-316.8,-12.148
91.3826,-316.8,-12.1434
91.4827,-316.8,-12.1446
91.5826,-316.8,-12.1403
91.6825,-316.8,-12.1359
91.7827,-316.8,-12.1424
91.882,-316.8,-12.1391
91.9846,-316.8,-12.1426
92.0845,-316.8,-12.143
92.1838,-316.8,-12.1462
92.2856,-316.8,-12.1432
92.3851,-316.8,-12.1426
92.485,-316.8,-12.1436
92.5857,-316.8,-12.1424
92.6867,-316.8,-12.143
92.786,-316.8,-12.1442
92.8867,-316.8,-12.147
92.9873,-316.8,-12.1448
93.0879,-316.8,-12.1432
93.1883,-316.8,-12.1385
93.2893,-316.8,-12.146
93.3899,-316.8,-12.1422
93.4906,-316.8,-12.1407
93.5904,-316.8,-12.1482
93.6918,-316.8,-12.1432
93.7918,-316.8,-12.146
93.8928,-316.8,-12.1434
93.9946,-316.8,-12.1375
94.0939,-316.8,-12.146
94.1945,-316.8,-12.1436
94.2945,-316.8,-12.1401
94.3957,-316.8,-12.1452
94.4952,-316.8,-12.1395
94.5967,-316.8,-12.1405
94.6964,-316.8,-12.1373
94.797,-316.8,-12.1357
94.8971,-316.8,-12.1349
94.9981,-316.8,-12.1397
95.0984,-316.8,-12.1369
95.1984,-316.8,-12.1418
95.2995,-316.8,-12.1399
95.4007,-316.8,-12.1391
95.5009,-316.8,-12.1446
95.6019,-316.8,-12.1393
95.7027,-316.8,-12.1409
95.8024,-316.8,-12.1371
95.9034,-316.8,-12.1335
96.0044,-316.8,-12.143
96.1045,-316.8,-12.1377
96.2042,-316.8,-12.1383
96.3042,-316.8,-12.1371
96.4041,-316.8,-12.1424
96.5043,-316.8,-12.1395
96.6051,-316.8,-12.1367
96.7051,-316.8,-12.1403
96.8051,-316.8,-12.1395
96.905,-316.8,-12.1371
97.0054,-316.8,-12.1375
97.1051,-316.8,-12.1405
97.2058,-316.8,-12.1375
97.3059,-316.8,-12.1401
97.4061,-316.8,-12.1325
97.5076,-316.8,-12.1357
97.6075,-316.8,-12.1407
97.7075,-316.8,-12.1399
97.807,-316.8,-12.1335
97.9071,-316.8,-12.1357
98.007,-316.8,-12.1367
98.1075,-316.8,-12.1383
98.2069,-316.8,-12.1304
98.3071,-316.8,-12.1325
98.4072,-316.8,-12.1355
98.5072,-316.8,-12.1367
98.6074,-316.8,-12.1367
98.7072,-316.8,-12.1327
98.8073,-316.8,-12.132
98.9087,-316.8,-12.1345
99.0095,-316.8,-12.132
99.1097,-316.8,-12.1331
99.2096,-316.8,-12.128
99.3103,-316.8,-12.1276
99.4108,-316.8,-12.1232
99.5098,-316.8,-12.1322
99.61,-316.8,-12.1363
99.7104,-316.8,-12.1296
99.8108,-316.8,-12.1308
99.9105,-316.8,-12.128
100.0126,-316.8,-12.131
100.1119,-316.8,-12.1282
100.2128,-316.8,-12.1395
100.3119,-316.8,-12.1333
100.4135,-316.8,-12.1308
100.5136,-316.8,-12.1304
100.6137,-316.8,-12.1272
100.7148,-316.8,-12.1238
100.815,-316.8,-12.1292
100.9152,-316.8,-12.1282
101.0148,-316.8,-12.1225
101.1164,-316.8,-12.127
101.2163,-316.8,-12.1227
101.316,-316.8,-12.1195
101.4161,-316.8,-12.1258
101.5173,-316.8,-12.1308
101.6174,-316.8,-12.1335
101.7176,-316.8,-12.1268
101.8187,-316.8,-12.1345
101.9199,-316.8,-12.1284
102.02,-316.8,-12.1274
102.1199,-316.8,-12.1345
102.2207,-316.8,-12.1221
102.3206,-316.8,-12.1244
102.4209,-316.8,-12.1288
102.5226,-316.8,-12.1294
102.6228,-316.8,-12.129
102.723,-316.8,-12.124
102.8232,-316.8,-12.1347
102.9248,-316.8,-12.1351
103.024,-316.8,-12.1304
103.1246,-316.8,-12.1276
103.2256,-316.8,-12.1262
103.3252,-316.8,-12.1171
103.4252,-316.8,-12.1205
103.5252,-316.8,-12.1197
103.6258,-316.8,-12.1227
103.7252,-316.8,-12.1276
103.8252,-316.8,-12.1312
103.9252,-316.8,-12.1361
104.025,-316.8,-12.1306
104.1252,-316.8,-12.1211
104.2252,-316.8,-12.1302
104.3252,-316.8,-12.126
104.4259,-316.8,-12.1264
104.5273,-316.8,-12.1203
104.6275,-316.8,-12.1201
104.7275,-316.8,-12.1185
104.8276,-316.8,-12.1201
104.9275,-316.8,-12.1183
105.0273,-316.8,-12.1155
105.1276,-316.8,-12.1155
105.2275,-316.8,-12.1157
105.3276,-316.8,-12.1221
105.4269,-316.8,-12.124
105.5276,-316.8,-12.1209
105.6273,-316.8,-12.1149
105.7276,-316.8,-12.1157
105.8274,-316.8,-12.1232
105.9278,-316.8,-12.1203
106.0274,-316.8,-12.1197
106.1286,-316.8,-12.1217
106.2297,-316.8,-12.1189
106.3293,-316.8,-12.1134
106.4296,-316.8,-12.1203
106.5293,-316.8,-12.1223
106.629,-316.8,-12.1199
106.729,-316.8,-12.1229
106.8308,-316.8,-12.1108
106.93,-316.8,-12.1211
107.0301,-316.8,-12.1136
107.1307,-316.8,-12.1098
107.2307,-316.8,-12.1145
107.3303,-316.8,-12.1147
107.4307,-316.8,-12.1068
107.5317,-316.8,-12.1124
107.6317,-316.8,-12.1205
107.7314,-316.8,-12.1149
107.8312,-316.8,-12.1096
107.9317,-316.8,-12.1199
108.0329,-316.8,-12.1124
108.1322,-316.8,-12.1197
108.2326,-316.8,-12.1151
108.3337,-316.8,-12.1171
108.433,-316.8,-12.1151
108.5335,-316.8,-12.111
108.6343,-316.8,-12.1207
108.7355,-316.8,-12.1171
108.835,-316.8,-12.1199
108.9358,-316.8,-12.1236
109.035,-316.8,-12.1282
109.1352,-316.8,-12.1189
109.2352,-316.8,-12.1193
109.3366,-316.8,-12.1191
109.438,-316.8,-12.1282
109.5373,-316.8,-12.1199
109.6377,-316.8,-12.1163
109.737,-316.8,-12.1145
109.8377,-316.8,-12.1163
109.9372,-316.8,-12.1114
110.0377,-316.8,-12.1122
110.1375,-316.8,-12.1147
110.2377,-316.8,-12.1096
110.3376,-316.8,-12.108
110.4376,-316.8,-12.1043
110.5374,-316.8,-12.1153
110.6371,-316.8,-12.113
110.7385,-316.8,-12.1098
110.8382,-316.8,-12.1155
110.9393,-316.8,-12.1106
111.0395,-316.8,-12.105
111.1395,-316.8,-12.11
111.2396,-316.8,-12.1029
111.3398,-316.8,-12.1039
111.4398,-316.8,-12.1062
111.539,-316.8,-12.1084
111.6405,-316.8,-12.1062
111.7417,-316.8,-12.1128
111.8415,-316.8,-12.108
111.9412,-316.8,-12.1076
112.042,-316.8,-12.106
112.1429,-316.8,-12.11
112.242,-316.8,-12.11
112.3425,-316.8,-12.1078
112.4422,-316.8,-12.1078
112.5429,-316.8,-12.1102
112.6438,-316.8,-12.1056
112.7441,-316.8,-12.1003
112.8449,-316.8,-12.0971
112.9454,-316.8,-12.1122
113.0451,-316.8,-12.107
113.1452,-316.8,-12.1175
113.2469,-316.8,-12.1161
113.3469,-316.8,-12.1056
113.446,-316.8,-12.11
113.546,-316.8,-12.1072
113.6477,-316.8,-12.107
113.7474,-316.8,-12.1066
113.8476,-316.8,-12.1086
113.947,-316.8,-12.1088
114.0478,-316.8,-12.0985
114.1481,-316.657,-12.1056
114.2694,-316.243,-12.1041
114.3691,-315.559,-12.107
114.4707,-314.91,-11.939
114.5719,-314.226,-9.6306
114.6721,-313.542,-7.05192
114.7722,-312.893,-5.04299
114.8736,-312.209,-3.37536
114.9734,-311.56,-2.00697
115.0733,-310.876,-0.86987
115.1734,-310.192,0.0656457
115.2737,-309.543,0.839008
115.3745,-308.859,1.47165
115.474,-308.21,1.97631
115.5749,-307.526,2.36814
115.6743,-306.877,2.70397
115.7745,-306.193,2.96237
115.8743,-305.544,3.16516
115.9758,-304.86,3.32954
116.0752,-304.211,3.44741
116.1752,-303.528,3.54911
116.2752,-302.843,3.60492
116.3758,-302.194,3.64818
116.4751,-301.545,3.67487
116.575,-300.861,3.6955
116.6752,-300.212,3.70095
116.7753,-299.528,3.69954
116.8753,-298.879,3.68458
116.9766,-298.195,3.6686
117.0762,-297.546,3.64596
117.1769,-296.862,3.6316
117.2768,-296.179,3.61341
117.3772,-295.529,3.58571
117.4769,-294.88,3.56509
117.5762,-294.194,3.53921
117.6773,-293.51,3.51878
117.7774,-292.86,3.49472
117.8779,-292.177,3.46541
117.977,-291.528,3.44195
118.0783,-290.844,3.42537
118.1781,-290.194,3.39949
118.2784,-289.508,3.372
118.3798,-288.825,3.35239
118.48,-288.176,3.33378
118.5818,-287.492,3.31822
118.6822,-286.808,3.29678
118.7828,-286.159,3.28304
118.8829,-285.475,3.26039
118.9825,-284.826,3.2426
119.0826,-284.143,3.22076
119.1841,-283.459,3.21126
119.283,-282.809,3.20762
119.3842,-282.126,3.19347
119.486,-281.476,3.17891
119.5856,-280.793,3.15283
119.6854,-280.143,3.15606
119.7859,-279.46,3.14656
119.8867,-278.81,3.13281
119.9868,-278.127,3.12007
120.0863,-277.443,3.11401
120.1879,-276.794,3.11097
120.2889,-276.11,3.10167
120.3891,-275.427,3.08793
120.4904,-274.777,3.08975
120.5909,-274.091,3.08105
120.6905,-273.441,3.0859
120.7907,-272.758,3.07539
120.8902,-272.109,3.076
120.9919,-271.425,3.06993
121.0918,-270.742,3.07681
121.192,-270.092,3.07903
121.2927,-269.409,3.08085
121.393,-268.759,3.08995
121.4929,-268.075,3.095
121.5922,-267.426,3.1134
121.6938,-266.817,3.12432
121.7941,-266.799,3.14049
121.8949,-266.799,3.16698
121.9947,-266.799,3.14676
122.0943,-266.799,3.18235
122.1943,-266.799,3.18619
122.2959,-266.799,3.18659
122.3958,-266.799,3.18679
122.495,-266.8,3.19893
122.5952,-266.8,3.19569
122.6967,-266.8,3.18356
122.7964,-266.8,3.19448
122.8963,-266.8,3.18518
122.9965,-266.8,3.1872
123.0961,-266.8,3.18659
123.1974,-266.8,3.18659
123.2982,-266.8,3.18134
123.3987,-266.8,3.18214
123.4997,-266.8,3.1876
123.5992,-266.8,3.16981
123.6995,-266.8,3.1783
123.7996,-266.8,3.18497
123.8996,-266.8,3.17952
123.9995,-266.8,3.17567
124.1,-266.8,3.17446
124.1999,-266.8,3.16415
124.2998,-266.8,3.18032
124.3997,-266.8,3.18578
124.4996,-266.8,3.1779
124.5999,-266.8,3.18174
124.7006,-266.8,3.19064
124.8006,-266.8,3.17891
124.9005,-266.8,3.18437
125.0004,-266.8,3.18417
125.1004,-266.8,3.1872
125.2007,-266.8,3.18639
125.3014,-266.8,3.17891
125.4015,-266.8,3.18538
125.5013,-266.8,3.17871
125.6011,-266.8,3.18376
125.7017,-266.8,3.17749
125.8019,-266.8,3.17952
125.9019,-266.8,3.17972
126.003,-266.8,3.17345
126.1028,-266.8,3.18194
126.2023,-266.8,3.18457
126.3021,-266.8,3.18053
126.4026,-266.8,3.17729
126.5029,-266.8,3.17931
126.6036,-266.8,3.18336
126.7034,-266.8,3.18275
126.8047,-266.8,3.18639
126.9048,-266.8,3.19144
127.0046,-266.8,3.18619