File: Tinius-Olsen_Levitation_force/Preprocessed_measures/20231204_1640GDBCOs2_sl6_1.txt.csv
Time(s),Displacement(mm),Force(N)
0.0,-258.703,3.06184
0.2636,-258.207,3.09278
0.4644,-258.207,3.08206
0.6639,-258.207,3.09015
0.8641,-258.208,3.08287
1.0649,-258.208,3.08833
1.2662,-258.208,3.08307
1.4664,-258.208,3.07923
1.6661,-258.208,3.08651
1.8671,-258.208,3.08206
2.067,-258.208,3.07863
2.268,-258.208,3.07175
2.4677,-258.208,3.08489
2.6685,-258.208,3.08348
2.8692,-258.208,3.08166
3.0691,-258.208,3.08691
3.2688,-258.208,3.07822
3.4693,-258.208,3.08914
3.6693,-258.208,3.08752
3.8694,-258.208,3.09177
4.0686,-258.208,3.08631
4.27,-258.208,3.0944
4.4708,-258.208,3.09197
4.671,-258.208,3.08894
4.8722,-258.208,3.09197
5.0722,-258.208,3.08449
5.2738,-258.208,3.09015
5.475,-258.208,3.08388
5.6762,-258.208,3.09055
5.8769,-258.208,3.09156
6.0984,-258.001,3.07741
6.2976,-258.0,3.09783
6.5004,-258.0,3.09298
6.7003,-258.0,3.09217
6.9001,-258.0,3.09379
7.1011,-258.0,3.09318
7.3009,-258.0,3.09318
7.5015,-258.0,3.09177
7.7032,-258.0,3.10026
7.9031,-258.0,3.09561
8.1031,-258.0,3.10147
8.3044,-258.0,3.09682
8.5039,-258.0,3.09743
8.7038,-258.0,3.09136
8.9051,-258.0,3.08954
9.1063,-258.0,3.0948
9.3061,-258.0,3.09136
9.5065,-258.0,3.0952
9.7065,-258.0,3.09925
9.908,-258.0,3.09884
10.1085,-258.0,3.09844
10.3086,-258.0,3.0944
10.5101,-258.0,3.09035
10.7111,-258.0,3.09237
10.9108,-258.0,3.09844
11.1108,-258.0,3.09076
11.3108,-258.0,3.10006
11.5112,-258.0,3.09541
11.7109,-258.0,3.09723
11.9131,-258.0,3.08975
12.1138,-258.0,3.08954
12.3147,-258.0,3.09925
12.5161,-258.0,3.09541
12.7159,-258.0,3.09237
12.916,-258.0,3.09803
13.1158,-258.0,3.10188
13.3159,-258.0,3.10572
13.5163,-258.0,3.08853
13.7357,-258.562,3.06852
13.9372,-259.893,3.0582
14.1368,-260.0,3.02707
14.3378,-260.0,3.0299
14.5385,-260.0,3.03192
14.7376,-260.0,3.03394
14.9387,-260.0,3.02666
15.1388,-260.0,3.04041
15.3415,-260.0,3.03435
15.542,-260.0,3.03536
15.7431,-260.0,3.0297
15.9441,-260.0,3.02808
16.1454,-260.0,3.02727
16.3462,-260.0,3.03071
16.5472,-260.0,3.03556
16.7475,-260.0,3.03131
16.9472,-260.0,3.03657
17.1481,-260.0,3.03273
17.3482,-260.0,3.02808
17.5477,-260.0,3.0303
17.7495,-260.0,3.03718
17.9496,-260.0,3.03859
18.1512,-260.0,3.03313
18.3513,-260.0,3.03738
18.5509,-260.0,3.0392
18.7509,-260.0,3.03131
18.9506,-260.0,3.04466
19.1522,-260.0,3.03152
19.353,-260.0,3.03718
19.553,-260.0,3.039
19.7532,-260.0,3.039
19.9531,-260.0,3.03495
20.153,-260.0,3.03677
20.3543,-260.0,3.04526
20.5545,-260.0,3.03515
20.7537,-260.0,3.0297
20.9546,-260.0,3.03697
21.156,-260.0,3.03758
21.3575,-260.0,3.04122
21.558,-260.0,3.03879
21.7591,-260.0,3.0392
21.9601,-260.0,3.03758
22.1608,-260.0,3.03657
22.3623,-260.0,3.03718
22.5622,-260.0,3.04284
22.7641,-260.0,3.04446
22.9648,-260.0,3.03475
23.1661,-260.0,3.03718
23.3656,-260.0,3.03435
23.5673,-260.0,3.0392
23.7681,-260.0,3.03738
23.9687,-260.0,3.03576
24.1696,-260.0,3.04041
24.3687,-260.0,3.03677
24.5705,-260.0,3.04061
24.7707,-260.0,3.03859
24.9719,-260.0,3.04446
25.1727,-260.0,3.03273
25.3728,-260.0,3.03152
25.5726,-260.0,3.03152
25.7757,-260.0,3.039
25.9778,-260.0,3.05052
26.178,-260.0,3.04021
26.3797,-260.0,3.03394
26.5802,-260.0,3.03596
26.781,-260.0,3.03596
26.9817,-260.138,3.03172
27.203,-261.202,3.0204
27.4029,-262.535,2.98178
27.6032,-263.868,2.947
27.8043,-265.238,2.91121
28.0042,-266.571,2.8819
28.2057,-267.904,2.88513
28.4074,-269.237,2.8732
28.6087,-270.604,2.8633
28.8089,-271.937,2.87078
29.0103,-273.271,2.8542
29.2097,-274.603,2.85582
29.4106,-275.936,2.84045
29.6126,-277.269,2.82973
29.8122,-278.602,2.82185
30.0134,-279.935,2.81315
30.2127,-281.303,2.80628
30.4149,-282.635,2.78748
30.6167,-283.969,2.76685
30.8167,-285.301,2.74562
31.0188,-286.668,2.72642
31.2189,-288.001,2.69912
31.4196,-289.335,2.66273
31.619,-290.668,2.61906
31.8193,-292.001,2.57478
32.0206,-293.333,2.51432
32.2209,-294.667,2.43972
32.4213,-296.0,2.33579
32.6231,-297.332,2.22216
32.8232,-298.666,2.06749
33.0231,-300.001,1.88997
33.2243,-301.371,1.66069
33.4241,-302.704,1.35721
33.6243,-304.036,0.960522
33.8244,-305.369,0.459505
34.0258,-306.703,-0.189311
34.2263,-308.036,-1.0488
34.4261,-309.369,-2.16973
34.6261,-310.702,-3.58665
34.8276,-312.035,-5.38004
35.0281,-313.368,-7.61319
35.2279,-314.735,-10.2873
35.4284,-316.034,-13.3456
35.6287,-316.801,-16.8747
35.8282,-316.801,-16.6954
36.0287,-316.801,-16.1796
36.2285,-316.8,-15.8784
36.4285,-316.8,-15.6711
36.6287,-316.8,-15.5189
36.8278,-316.8,-15.3862
37.0292,-316.8,-15.2839
37.2293,-316.8,-15.1847
37.4303,-316.8,-15.1121
37.6307,-316.8,-15.0381
37.8317,-316.8,-14.9778
38.0311,-316.8,-14.9186
38.2331,-316.8,-14.8648
38.4325,-316.8,-14.8159
38.6337,-316.8,-14.7764
38.8333,-316.8,-14.7277
39.0329,-316.8,-14.6931
39.2333,-316.8,-14.658
39.4336,-316.8,-14.6238
39.6342,-316.8,-14.5896
39.8349,-316.8,-14.5579
40.0353,-316.8,-14.5276
40.2358,-316.8,-14.5092
40.4373,-316.8,-14.4802
40.6372,-316.8,-14.4493
40.8369,-316.8,-14.4313
41.0379,-316.8,-14.3977
41.2388,-316.8,-14.3802
41.4406,-316.8,-14.3535
41.6399,-316.8,-14.3421
41.8399,-316.8,-14.3132
42.0417,-316.8,-14.3021
42.2412,-316.8,-14.2758
42.4424,-316.8,-14.2619
42.6433,-316.8,-14.2437
42.8433,-316.8,-14.2303
43.0434,-316.8,-14.2063
43.2432,-316.8,-14.1923
43.4435,-316.8,-14.1745
43.6436,-316.8,-14.1565
43.8432,-316.8,-14.1454
44.0434,-316.8,-14.1319
44.243,-316.8,-14.1129
44.4434,-316.8,-14.1036
44.6445,-316.8,-14.084
44.8449,-316.8,-14.0765
45.0451,-316.8,-14.0645
45.2457,-316.8,-14.0484
45.4452,-316.8,-14.0314
45.6455,-316.8,-14.0195
45.8454,-316.8,-14.0077
46.0452,-316.8,-13.9926
46.2452,-316.8,-13.9912
46.446,-316.8,-13.981
46.6465,-316.8,-13.9715
46.8466,-316.8,-13.96
47.0469,-316.8,-13.9558
47.2474,-316.8,-13.9426
47.4479,-316.8,-13.9299
47.6485,-316.8,-13.9184
47.848,-316.8,-13.9
48.049,-316.8,-13.9002
48.2493,-316.8,-13.8868
48.4501,-316.8,-13.8775
48.6516,-316.8,-13.8674
48.8524,-316.8,-13.8613
49.0522,-316.8,-13.8438
49.2532,-316.8,-13.8399
49.456,-316.8,-13.8318
49.6574,-316.8,-13.8256
49.8584,-316.8,-13.8219
50.0597,-316.8,-13.8144
50.2589,-316.8,-13.7991
50.4598,-316.8,-13.792
50.6596,-316.8,-13.7847
50.8594,-316.8,-13.7799
51.0596,-316.8,-13.7685
51.2599,-316.8,-13.7655
51.461,-316.8,-13.7572
51.662,-316.8,-13.7485
51.8633,-316.8,-13.7386
52.0636,-316.8,-13.7287
52.2643,-316.8,-13.7251
52.4653,-316.8,-13.7204
52.666,-316.8,-13.7028
52.8676,-316.8,-13.7087
53.0674,-316.8,-13.6962
53.267,-316.8,-13.6941
53.4671,-316.8,-13.6856
53.6674,-316.8,-13.6768
53.867,-316.8,-13.6755
54.0673,-316.8,-13.6614
54.269,-316.8,-13.6575
54.4693,-316.8,-13.6458
54.6699,-316.8,-13.643
54.8713,-316.8,-13.6373
55.071,-316.8,-13.6305
55.2713,-316.8,-13.6246
55.4712,-316.8,-13.6209
55.6712,-316.8,-13.6137
55.8714,-316.8,-13.6104
56.0713,-316.8,-13.607
56.2709,-316.8,-13.5989
56.4714,-316.8,-13.6011
56.6711,-316.8,-13.5888
56.8725,-316.8,-13.5872
57.072,-316.8,-13.5795
57.2732,-316.8,-13.5706
57.4735,-316.8,-13.5678
57.6756,-316.8,-13.5595
57.8751,-316.8,-13.5514
58.0767,-316.8,-13.5562
58.2778,-316.8,-13.5474
58.4785,-316.8,-13.5419
58.6784,-316.8,-13.5431
58.8798,-316.8,-13.5372
59.0794,-316.8,-13.529
59.28,-316.8,-13.5281
59.4813,-316.8,-13.5211
59.6827,-316.8,-13.5178
59.8836,-316.8,-13.5128
60.0831,-316.8,-13.5069
60.2835,-316.8,-13.497
60.4831,-316.8,-13.497
60.6852,-316.8,-13.4944
60.8865,-316.8,-13.4867
61.0871,-316.8,-13.4837
61.287,-316.8,-13.4863
61.4877,-316.8,-13.4812
61.6876,-316.8,-13.4736
61.8889,-316.8,-13.4657
62.0883,-316.8,-13.4616
62.2882,-316.8,-13.4541
62.4889,-316.8,-13.4523
62.689,-316.8,-13.4487
62.8901,-316.8,-13.4422
63.0908,-316.8,-13.4495
63.2913,-316.8,-13.439
63.4927,-316.8,-13.4319
63.6937,-316.8,-13.424
63.8945,-316.8,-13.4216
64.0944,-316.8,-13.4275
64.2944,-316.8,-13.4121
64.495,-316.8,-13.4129
64.6942,-316.8,-13.4107
64.8961,-316.8,-13.4087
65.096,-316.8,-13.4026
65.2975,-316.8,-13.3977
65.4999,-316.8,-13.3955
65.6994,-316.8,-13.3955
65.8996,-316.8,-13.3878
66.1016,-316.8,-13.3905
66.3014,-316.8,-13.3759
66.5026,-316.8,-13.3698
66.7046,-316.8,-13.365
66.9046,-316.8,-13.3704
67.1041,-316.8,-13.3644
67.3045,-316.8,-13.3522
67.5056,-316.8,-13.3506
67.7066,-316.8,-13.3476
67.9077,-316.8,-13.3454
68.109,-316.8,-13.345
68.3092,-316.8,-13.3399
68.511,-316.8,-13.3387
68.7116,-316.8,-13.3353
68.9127,-316.8,-13.333
69.1126,-316.8,-13.3276
69.3136,-316.8,-13.3266
69.5134,-316.8,-13.3251
69.7136,-316.8,-13.3183
69.9138,-316.8,-13.3183
70.1134,-316.8,-13.3088
70.3138,-316.8,-13.3134
70.5138,-316.8,-13.3124
70.7138,-316.8,-13.3025
70.9136,-316.8,-13.3053
71.1135,-316.8,-13.3029
71.3136,-316.8,-13.2912
71.5133,-316.8,-13.292
71.7136,-316.8,-13.2879
71.9136,-316.8,-13.2886
72.1136,-316.8,-13.2823
72.3148,-316.8,-13.289
72.5146,-316.8,-13.2847
72.7166,-316.8,-13.2774
72.9169,-316.8,-13.2702
73.118,-316.8,-13.2675
73.3187,-316.8,-13.2651
73.52,-316.8,-13.2629
73.7205,-316.8,-13.2582
73.923,-316.8,-13.2655
74.1235,-316.8,-13.2538
74.3234,-316.8,-13.2522
74.5248,-316.8,-13.2505
74.7253,-316.8,-13.2469
74.9257,-316.8,-13.2362
75.1263,-316.8,-13.241
75.3269,-316.8,-13.2441
75.5278,-316.8,-13.233
75.7283,-316.8,-13.2267
75.93,-316.8,-13.2362
76.131,-316.8,-13.2313
76.3319,-316.8,-13.2192
76.5312,-316.8,-13.2166
76.7313,-316.8,-13.2234
76.9312,-316.8,-13.2176
77.1315,-316.8,-13.2091
77.3312,-316.8,-13.2117
77.5312,-316.8,-13.2081
77.7317,-316.8,-13.1988
77.9312,-316.8,-13.2069
78.1314,-316.8,-13.1978
78.3314,-316.8,-13.1957
78.5314,-316.8,-13.1957
78.7312,-316.8,-13.1927
78.9327,-316.8,-13.1883
79.134,-316.8,-13.1895
79.3335,-316.8,-13.1806
79.5352,-316.8,-13.1828
79.7355,-316.8,-13.183
79.9358,-316.8,-13.1743
80.1358,-316.8,-13.1711
80.3358,-316.8,-13.1749
80.5362,-316.8,-13.1685
80.7385,-316.8,-13.1681
80.9391,-316.8,-13.1664
81.1406,-316.8,-13.1606
81.3417,-316.8,-13.1602
81.5417,-316.8,-13.1553
81.7435,-316.8,-13.1567
81.9435,-316.8,-13.1494
82.1433,-316.8,-13.1503
82.345,-316.8,-13.1507
82.5466,-316.8,-13.1426
82.7477,-316.8,-13.1428
82.9473,-316.8,-13.1426
83.148,-316.8,-13.1337
83.3477,-316.8,-13.1349
83.5482,-316.8,-13.1343
83.7482,-316.8,-13.128
83.9492,-316.8,-13.1306
84.1509,-316.8,-13.1294
84.3504,-316.8,-13.1217
84.551,-316.8,-13.1163
84.7509,-316.8,-13.123
84.9513,-316.8,-13.1197
85.1522,-316.8,-13.1161
85.353,-316.8,-13.1183
85.5534,-316.8,-13.1147
85.7536,-316.8,-13.1096
85.9537,-316.8,-13.1116
86.1537,-316.8,-13.1112
86.3535,-316.8,-13.1056
86.5539,-316.8,-13.1048
86.754,-316.8,-13.1076
86.9542,-316.8,-13.1015
87.1548,-316.8,-13.106
87.3543,-316.8,-13.1005
87.555,-316.8,-13.0995
87.7548,-316.8,-13.0979
87.9557,-316.8,-13.0947
88.1559,-316.8,-13.0805
88.3554,-316.8,-13.0876
88.5557,-316.8,-13.085
88.7557,-316.8,-13.0811
88.9566,-316.8,-13.075
89.1568,-316.8,-13.07
89.3569,-316.8,-13.0678
89.5572,-316.8,-13.0726
89.7584,-316.8,-13.0643
89.9616,-316.8,-13.0672
90.1615,-316.8,-13.0666
90.3637,-316.8,-13.0639
90.5651,-316.8,-13.0607
90.7651,-316.8,-13.0609
90.9643,-316.8,-13.0597
91.1646,-316.8,-13.0538
91.3646,-316.8,-13.0575
91.5651,-316.8,-13.0518
91.7645,-316.8,-13.0492
91.9659,-316.8,-13.0536
92.1661,-316.8,-13.0471
92.3664,-316.8,-13.0459
92.5671,-316.8,-13.0419
92.7673,-316.8,-13.0368
92.9684,-316.8,-13.0382
93.1692,-316.8,-13.0304
93.3703,-316.8,-13.0326
93.5702,-316.8,-13.0275
93.7713,-316.8,-13.0354
93.9715,-316.8,-13.0314
94.1716,-316.8,-13.0296
94.3725,-316.8,-13.0279
94.5736,-316.8,-13.0277
94.774,-316.8,-13.0275
94.9754,-316.8,-13.0182
95.1765,-316.8,-13.0186
95.3783,-316.8,-13.0223
95.5793,-316.8,-13.0225
95.7793,-316.8,-13.0101
95.9802,-316.8,-13.0112
96.181,-316.8,-13.0089
96.3813,-316.8,-13.0116
96.5828,-316.8,-13.0105
96.7832,-316.8,-13.0059
96.9828,-316.8,-13.0073
97.1849,-316.8,-13.0045
97.3847,-316.8,-12.9996
97.5853,-316.8,-13.001
97.7874,-316.8,-12.998
97.9898,-316.8,-13.0053
98.1901,-316.8,-12.9901
98.3898,-316.8,-12.9875
98.5907,-316.8,-12.9863
98.7911,-316.8,-12.9958
98.9916,-316.8,-12.9879
99.1919,-316.8,-12.9885
99.3916,-316.8,-12.9905
99.5928,-316.8,-12.9835
99.7924,-316.8,-12.9776
99.9939,-316.8,-12.9818
100.1938,-316.8,-12.9776
100.394,-316.8,-12.9804
100.5938,-316.8,-12.9772
100.7945,-316.8,-12.9731
100.995,-316.8,-12.9744
101.1947,-316.8,-12.9744
101.3951,-316.8,-12.9723
101.5952,-316.8,-12.9669
101.7951,-316.8,-12.9628
101.9951,-316.8,-12.9665
102.1951,-316.8,-12.9638
102.3959,-316.8,-12.959
102.5964,-316.8,-12.9568
102.7982,-316.8,-12.9628
102.9985,-316.8,-12.9515
103.1989,-316.8,-12.9499
103.3998,-316.8,-12.9495
103.6005,-316.8,-12.9529
103.8008,-316.8,-12.9515
104.002,-316.8,-12.9489
104.2019,-316.8,-12.9442
104.4014,-316.8,-12.9479
104.6029,-316.8,-12.9412
104.8037,-316.8,-12.9355
105.004,-316.8,-12.9309
105.2037,-316.8,-12.9384
105.4047,-316.8,-12.9347
105.6046,-316.8,-12.9392
105.806,-316.8,-12.9365
106.0067,-316.8,-12.9353
106.2065,-316.8,-12.9333
106.4066,-316.8,-12.9264
106.6073,-316.8,-12.9196
106.8073,-316.8,-12.9212
107.0092,-316.8,-12.9274
107.2091,-316.8,-12.9159
107.4085,-316.8,-12.9177
107.6087,-316.8,-12.9208
107.8086,-316.8,-12.9188
108.0101,-316.8,-12.9151
108.2104,-316.8,-12.9186
108.411,-316.8,-12.9129
108.6111,-316.8,-12.9131
108.811,-316.8,-12.9119
109.0117,-316.8,-12.9082
109.2125,-316.8,-12.9076
109.4131,-316.8,-12.902
109.6128,-316.8,-12.9119
109.8126,-316.8,-12.9082
110.0132,-316.8,-12.8943
110.2141,-316.8,-12.8947
110.4138,-316.8,-12.8937
110.6134,-316.8,-12.9006
110.8147,-316.8,-12.8941
111.0144,-316.8,-12.8923
111.2174,-316.8,-12.8909
111.4179,-316.8,-12.8862
111.6181,-316.8,-12.8856
111.8186,-316.8,-12.8824
112.0199,-316.8,-12.8858
112.2203,-316.8,-12.8838
112.4212,-316.8,-12.8789
112.621,-316.8,-12.8791
112.8208,-316.8,-12.8836
113.0206,-316.8,-12.8729
113.2219,-316.8,-12.8814
113.4235,-316.8,-12.8739
113.6239,-316.8,-12.8747
113.8252,-316.8,-12.8706
114.0251,-316.8,-12.8678
114.2259,-316.8,-12.8718
114.4265,-316.8,-12.8686
114.628,-316.8,-12.8644
114.8275,-316.8,-12.8682
115.0285,-316.8,-12.8674
115.2294,-316.8,-12.8656
115.4295,-316.8,-12.8664
115.6313,-316.8,-12.8591
115.8314,-316.8,-12.8652
116.0317,-316.8,-12.8634
116.2316,-316.8,-12.8571
116.4318,-316.8,-12.8557
116.6325,-316.8,-12.8506
116.8341,-316.8,-12.8537
117.0339,-316.8,-12.8579
117.2352,-316.8,-12.8528
117.4359,-316.8,-12.8506
117.6374,-316.8,-12.8543
117.8374,-316.8,-12.8496
118.0376,-316.8,-12.8484
118.2384,-316.8,-12.8466
118.439,-316.8,-12.8476
118.6385,-316.8,-12.8389
118.8396,-316.8,-12.8452
119.0422,-316.8,-12.8456
119.244,-316.8,-12.8407
119.4435,-316.8,-12.8344
119.6446,-316.8,-12.8437
119.8459,-316.8,-12.8346
120.0467,-316.8,-12.8355
120.2485,-316.8,-12.8344
120.4486,-316.8,-12.8353
120.6499,-316.8,-12.8292
120.85,-316.8,-12.8326
121.0507,-316.8,-12.8264
121.2514,-316.8,-12.8288
121.452,-316.8,-12.8251
121.6515,-316.8,-12.8183
121.8519,-316.8,-12.8189
122.0526,-316.8,-12.8235
122.2529,-316.8,-12.8223
122.4543,-316.8,-12.8175
122.6539,-316.8,-12.8241
122.8541,-316.8,-12.8213
123.0542,-316.8,-12.8124
123.2543,-316.8,-12.8162
123.4541,-316.8,-12.8156
123.6543,-316.8,-12.8171
123.8543,-316.8,-12.8148
124.0542,-316.8,-12.8162
124.2543,-316.8,-12.8122
124.4555,-316.8,-12.8049
124.656,-316.8,-12.8136
124.8569,-316.8,-12.811
125.0573,-316.8,-12.8055
125.258,-316.8,-12.8132
125.4586,-316.8,-12.8003
125.6586,-316.8,-12.7999
125.8589,-316.8,-12.8021
126.0591,-316.8,-12.7978
126.2605,-316.8,-12.7978
126.4596,-316.8,-12.8053
126.6601,-316.8,-12.7993
126.8606,-316.8,-12.8039
127.0625,-316.8,-12.8007
127.2616,-316.8,-12.7956
127.4631,-316.8,-12.7938
127.6639,-316.8,-12.791
127.8652,-316.8,-12.793
128.0662,-316.8,-12.7914
128.2664,-316.8,-12.7887
128.4684,-316.8,-12.7914
128.6682,-316.8,-12.7841
128.8681,-316.8,-12.7871
129.0689,-316.8,-12.7837
129.2691,-316.8,-12.7762
129.4691,-316.8,-12.7811
129.6688,-316.8,-12.7792
129.8694,-316.8,-12.7748
130.0696,-316.8,-12.7792
130.2702,-316.8,-12.7742
130.4698,-316.8,-12.7768
130.6702,-316.8,-12.7819
130.8696,-316.8,-12.7758
131.0705,-316.8,-12.7738
131.2703,-316.8,-12.7714
131.4704,-316.8,-12.7708
131.6713,-316.8,-12.7649
131.8718,-316.8,-12.76
132.0726,-316.8,-12.7669
132.2726,-316.8,-12.7693
132.4727,-316.8,-12.7554
132.674,-316.8,-12.7619
132.874,-316.8,-12.7641
133.0741,-316.8,-12.7578
133.2742,-316.8,-12.7627
133.4741,-316.8,-12.7582
133.674,-316.8,-12.7623
133.8756,-316.8,-12.7576
134.076,-316.8,-12.758
134.276,-316.8,-12.7463
134.4766,-316.8,-12.7457
134.676,-316.8,-12.7491
134.8767,-316.8,-12.7526
135.08,-316.8,-12.7538
135.2788,-316.8,-12.7449
135.4786,-316.8,-12.7513
135.6793,-316.8,-12.7515
135.8797,-316.8,-12.7659
136.0809,-316.8,-12.7602
136.2817,-316.8,-12.7538
136.482,-316.8,-12.7493
136.6817,-316.8,-12.7441
136.882,-316.8,-12.7578
137.082,-316.8,-12.7342
137.2836,-316.8,-12.7418
137.4836,-316.8,-12.7388
137.6844,-316.8,-12.735
137.8843,-316.8,-12.7453
138.084,-316.8,-12.7412
138.2842,-316.8,-12.7315
138.4843,-316.8,-12.735
138.6844,-316.8,-12.7283
138.8838,-316.8,-12.7297
139.0854,-316.8,-12.7202
139.286,-316.8,-12.7307
139.4876,-316.8,-12.7236
139.6869,-316.8,-12.724
139.8891,-316.8,-12.7257
140.09,-316.8,-12.7259
140.2903,-316.8,-12.719
140.492,-316.8,-12.7265
140.6927,-316.8,-12.7259
140.8947,-316.8,-12.7206
141.0957,-316.8,-12.7277
141.2962,-316.8,-12.7271
141.4964,-316.8,-12.72
141.697,-316.8,-12.7133
141.8973,-316.8,-12.7168
142.0968,-316.8,-12.7141
142.2967,-316.8,-12.7054
142.4975,-316.8,-12.7123
142.6971,-316.8,-12.7202
142.8967,-316.8,-12.7164
143.0972,-316.8,-12.7208
143.2979,-316.8,-12.7111
143.4994,-316.8,-12.7081
143.6997,-316.8,-12.7083
143.8987,-316.8,-12.7117
144.1003,-316.8,-12.7042
144.3008,-316.8,-12.7024
144.5015,-316.8,-12.7
144.702,-316.8,-12.7046
144.9022,-316.8,-12.7095
145.102,-316.8,-12.7044
145.3028,-316.8,-12.7024
145.5039,-316.8,-12.701
145.704,-316.8,-12.7006
145.9045,-316.8,-12.6982
146.1044,-316.8,-12.7129
146.3048,-316.8,-12.6923
146.5053,-316.8,-12.6982
146.7063,-316.8,-12.6986
146.907,-316.8,-12.6929
147.1075,-316.8,-12.6947
147.3082,-316.8,-12.6978
147.5095,-316.8,-12.6976
147.7106,-316.8,-12.6844
147.9104,-316.8,-12.6913
148.1102,-316.8,-12.6879
148.3102,-316.8,-12.6913
148.5118,-316.8,-12.6816
148.7133,-316.8,-12.685
148.9143,-316.8,-12.6941
149.1144,-316.8,-12.687
149.3142,-316.8,-12.6812
149.5138,-316.8,-12.6893
149.7142,-316.8,-12.6953
149.9145,-316.8,-12.6862
150.1141,-316.8,-12.6804
150.3152,-316.8,-12.6723
150.5153,-316.8,-12.6788
150.7155,-316.8,-12.6879
150.915,-316.8,-12.678
151.1163,-316.8,-12.6773
151.3169,-316.8,-12.6775
151.5169,-316.8,-12.678
151.7171,-316.8,-12.6775
151.9168,-316.8,-12.6727
152.1173,-316.8,-12.6749
152.317,-316.8,-12.667
152.5186,-316.8,-12.666
152.7187,-316.8,-12.6701
152.9184,-316.8,-12.6674
153.1195,-316.8,-12.6699
153.3192,-316.8,-12.668
153.5202,-316.8,-12.6769
153.7202,-316.8,-12.6624
153.9224,-316.8,-12.666
154.1261,-316.8,-12.6741
154.3259,-316.8,-12.667
154.5259,-316.8,-12.6618
154.7273,-316.8,-12.6596
154.9279,-316.8,-12.6608
155.1282,-316.8,-12.6529
155.3289,-316.8,-12.6626
155.5293,-316.8,-12.662
155.7299,-316.8,-12.6636
155.9309,-316.8,-12.6515
156.1315,-316.8,-12.66
156.3318,-316.8,-12.6701
156.5319,-316.8,-12.6547
156.7341,-316.8,-12.6602
156.9338,-316.8,-12.6511
157.1349,-316.8,-12.6533
157.3352,-316.8,-12.6482
157.5361,-316.8,-12.6505
157.7359,-316.8,-12.6482
157.9364,-316.8,-12.6509
158.1371,-316.8,-12.644
158.3377,-316.8,-12.6438
158.5377,-316.8,-12.6418
158.7376,-316.8,-12.6438
158.938,-316.8,-12.65
159.138,-316.8,-12.6367
159.3399,-316.8,-12.641
159.5415,-316.8,-12.6393
159.7412,-316.8,-12.6401
159.9421,-316.8,-12.642
160.1422,-316.8,-12.6438
160.3442,-316.8,-12.6412
160.544,-316.8,-12.648
160.7442,-316.8,-12.644
160.9446,-316.8,-12.6391
161.1446,-316.8,-12.6351
161.344,-316.8,-12.6337
161.5453,-316.8,-12.6345
161.7453,-316.8,-12.6373
161.9461,-316.8,-12.631
162.147,-316.8,-12.6387
162.3486,-316.8,-12.6319
162.5497,-316.8,-12.6288
162.7505,-316.666,-12.6343
162.9703,-315.566,-12.6252
163.1703,-314.233,-12.6306
163.3707,-312.9,-8.92497
163.5721,-311.567,-4.76115
163.7738,-310.234,-1.91679
163.9746,-308.901,0.0389571
164.1742,-307.567,1.36287
164.3744,-306.234,2.23369
164.5741,-304.901,2.79819
164.7743,-303.569,3.1688
164.9743,-302.201,3.37746
165.1741,-300.902,3.50039
165.3751,-299.533,3.55578
165.5756,-298.2,3.57277
165.7766,-296.867,3.55356
165.9779,-295.534,3.53819
166.1773,-294.201,3.49129
166.3769,-292.865,3.45247
166.5778,-291.532,3.4088
166.7769,-290.197,3.36067
166.9777,-288.862,3.33217
167.1779,-287.529,3.28223
167.3777,-286.196,3.25513
167.5769,-284.863,3.22804
167.7789,-283.53,3.18801
167.9797,-282.197,3.16557
168.1794,-280.864,3.14272
168.3809,-279.496,3.13018
168.5824,-278.163,3.1037
168.7823,-276.831,3.09622
168.9831,-275.498,3.07761
169.1842,-274.164,3.0675
169.3846,-272.829,3.05093
169.5845,-271.462,3.0489
169.784,-270.163,3.0303
169.9847,-268.828,3.01595
170.1847,-267.494,3.02505
170.3847,-266.799,3.01615
170.5844,-266.799,3.0206
170.7856,-266.799,2.98521
170.9859,-266.799,3.01918
171.1867,-266.8,3.02606
171.3868,-266.8,3.02848
171.5869,-266.8,3.03232
171.7875,-266.8,3.02767
171.9877,-266.8,3.02808
172.1885,-266.8,3.03778
172.3896,-266.8,3.04041
172.5909,-266.8,3.03192
172.7909,-266.8,3.02687
172.9903,-266.8,3.03293
173.1901,-266.8,3.02606
173.3904,-266.8,3.01878
173.5914,-266.8,3.01959
173.7922,-266.8,3.01756
173.9929,-266.8,3.021
174.192,-266.8,3.01595
174.3926,-266.8,3.01554
174.5923,-266.8,3.02222
174.7936,-266.8,3.01514
174.9945,-266.8,3.02019
175.1966,-266.8,3.01756
175.3964,-266.8,3.02242
175.597,-266.8,3.02141
175.7972,-266.8,3.01959
175.9985,-266.8,3.0206
176.1995,-266.8,3.02242
176.3997,-266.8,3.02323
176.6,-266.8,3.01453
176.801,-266.8,3.01575
177.0023,-266.8,3.02565
177.2048,-266.8,3.02666
177.4045,-266.8,3.02161
177.6047,-266.8,3.02424
177.8042,-266.8,3.01696
178.0048,-266.8,3.02161
178.2048,-266.8,3.01756
178.4046,-266.8,3.0212
178.6055,-266.8,3.02606
178.8051,-266.8,3.02141
179.0063,-266.8,3.02687
179.2067,-266.8,3.01898
179.4078,-266.8,3.0303
179.6081,-266.8,3.02403