File: Tinius-Olsen_Levitation_force/Preprocessed_measures/20231204_1653GDBCOs2_sl6_5.txt.csv
Time(s),Displacement(mm),Force(N)
0.0,-266.952,3.14717
0.4379,-269.486,3.11239
0.8405,-272.153,3.05942
1.2433,-274.821,3.06467
1.6455,-277.523,3.07519
2.0452,-280.19,3.10147
2.4475,-282.856,3.12028
2.8492,-285.556,3.17183
3.2511,-288.225,3.2054
3.6519,-290.891,3.24604
4.0533,-293.556,3.29739
4.4529,-296.257,3.32812
4.8545,-298.923,3.31175
5.255,-301.589,3.21348
5.6567,-304.255,2.90212
6.0603,-306.955,2.17809
6.4619,-309.621,0.637024
6.8641,-312.321,-2.37899
7.2651,-314.99,-7.87441
7.6656,-316.801,-13.1778
8.0661,-316.8,-12.9145
8.4677,-316.8,-12.8092
8.8696,-316.8,-12.7566
9.2705,-316.8,-12.7135
9.6702,-316.8,-12.6763
10.0735,-316.8,-12.641
10.4747,-316.8,-12.6262
10.8761,-316.8,-12.6096
11.2785,-316.8,-12.5793
11.678,-316.8,-12.5696
12.0784,-316.8,-12.5471
12.4789,-316.8,-12.5354
12.8798,-316.8,-12.5239
13.2805,-316.8,-12.5164
13.6817,-316.8,-12.5053
14.0829,-316.8,-12.497
14.4859,-316.8,-12.4934
14.886,-316.8,-12.4741
15.287,-316.8,-12.4776
15.6882,-316.8,-12.4705
16.0905,-316.8,-12.4523
16.4924,-316.8,-12.4541
16.8928,-316.8,-12.44
17.292,-316.8,-12.4313
17.6932,-316.8,-12.4151
18.0936,-316.8,-12.4159
18.4972,-316.8,-12.4096
18.8991,-316.8,-12.4042
19.3025,-316.8,-12.4012
19.7037,-316.8,-12.3955
20.1044,-316.8,-12.3836
20.5044,-316.8,-12.3817
20.9056,-316.8,-12.3733
21.3062,-316.8,-12.3844
21.7076,-316.8,-12.3757
22.1081,-316.8,-12.3751
22.5103,-316.8,-12.369
22.9113,-316.8,-12.3638
23.3113,-316.8,-12.3559
23.7118,-316.8,-12.3551
24.1118,-316.8,-12.35
24.5119,-316.8,-12.3421
24.911,-316.8,-12.3365
25.3118,-316.8,-12.3399
25.7129,-316.8,-12.3363
26.1131,-316.8,-12.3294
26.5156,-316.8,-12.3294
26.9162,-316.8,-12.3217
27.3172,-316.8,-12.3191
27.7186,-316.8,-12.316
28.1187,-316.8,-12.3166
28.5191,-316.8,-12.3114
28.9191,-316.8,-12.312
29.3198,-316.8,-12.3114
29.7205,-316.8,-12.3029
30.1224,-316.8,-12.3007
30.5232,-316.8,-12.3047
30.925,-316.8,-12.2853
31.3261,-316.8,-12.2954
31.7274,-316.8,-12.2881
32.1294,-316.8,-12.2896
32.5325,-316.8,-12.2898
32.9359,-316.8,-12.2845
33.3369,-316.8,-12.2776
33.7367,-316.8,-12.2776
34.1379,-316.8,-12.278
34.5391,-316.8,-12.2734
34.9414,-316.8,-12.26
35.3452,-316.8,-12.2716
35.7463,-316.8,-12.2602
36.1465,-316.8,-12.272
36.5482,-316.8,-12.2606
36.9494,-316.8,-12.2649
37.351,-316.8,-12.2643
37.7507,-316.8,-12.2677
38.1502,-316.8,-12.2568
38.5508,-316.8,-12.2542
38.9529,-316.8,-12.2519
39.3525,-316.8,-12.2489
39.7536,-316.8,-12.2465
40.1541,-316.8,-12.2517
40.5576,-316.8,-12.2394
40.9599,-316.8,-12.2449
41.3591,-316.8,-12.2372
41.7622,-316.8,-12.2348
42.1639,-316.8,-12.2301
42.5659,-316.8,-12.2311
42.9653,-316.8,-12.2275
43.3675,-316.8,-12.2194
43.769,-316.8,-12.2267
44.17,-316.8,-12.2249
44.5711,-316.8,-12.2244
44.9719,-316.8,-12.221
45.3715,-316.8,-12.2226
45.7726,-316.8,-12.22
46.1731,-316.8,-12.2156
46.5739,-316.8,-12.2176
46.9749,-316.8,-12.2153
47.3753,-316.8,-12.2103
47.7752,-316.8,-12.2127
48.177,-316.8,-12.2174
48.5766,-316.8,-12.2056
48.9775,-316.8,-12.2101
49.3786,-316.8,-12.1959
49.7793,-316.8,-12.2065
50.1806,-316.8,-12.2044
50.5832,-316.8,-12.2014
50.9852,-316.8,-12.201
51.3865,-316.8,-12.1915
51.787,-316.8,-12.1945
52.1879,-316.8,-12.1921
52.589,-316.8,-12.1899
52.99,-316.8,-12.1925
53.392,-316.8,-12.1891
53.7931,-316.8,-12.1889
54.1933,-316.8,-12.1842
54.5959,-316.8,-12.1885
54.9952,-316.8,-12.1814
55.3965,-316.8,-12.1828
55.7977,-316.8,-12.1838
56.1984,-316.8,-12.1909
56.6004,-316.8,-12.1846
57.002,-316.8,-12.1822
57.4031,-316.8,-12.1828
57.8039,-316.8,-12.1834
58.2053,-316.8,-12.1852
58.6059,-316.8,-12.1767
59.0065,-316.8,-12.1777
59.4086,-316.8,-12.1765
59.8102,-316.8,-12.1729
60.2132,-316.8,-12.1741
60.6143,-316.8,-12.1666
61.0158,-316.8,-12.1727
61.4166,-316.8,-12.167
61.8166,-316.8,-12.1622
62.2166,-316.8,-12.1509
62.6167,-316.8,-12.1666
63.0202,-316.8,-12.1606
63.4196,-316.8,-12.1543
63.8207,-316.8,-12.1517
64.2204,-316.8,-12.1545
64.6203,-316.8,-12.1529
65.0212,-316.8,-12.1513
65.4215,-316.8,-12.1496
65.823,-316.8,-12.1551
66.2238,-316.8,-12.1357
66.6237,-316.8,-12.1426
67.0243,-316.8,-12.1422
67.4248,-316.8,-12.1511
67.8261,-316.8,-12.1359
68.2254,-316.8,-12.145
68.6265,-316.8,-12.1393
69.0281,-316.8,-12.1446
69.4291,-316.8,-12.1379
69.832,-316.8,-12.1379
70.2338,-316.8,-12.1403
70.635,-316.8,-12.1361
71.0365,-316.8,-12.1409
71.4375,-316.8,-12.129
71.84,-316.8,-12.1331
72.2397,-316.8,-12.1391
72.6411,-316.8,-12.1314
73.0417,-316.8,-12.1248
73.4429,-316.8,-12.1337
73.8446,-316.8,-12.129
74.2452,-316.8,-12.1318
74.6455,-316.8,-12.1284
75.0458,-316.8,-12.1266
75.4472,-316.8,-12.1258
75.8494,-316.8,-12.1227
76.2493,-316.8,-12.127
76.6512,-316.8,-12.1189
77.0508,-316.8,-12.1215
77.4515,-316.8,-12.1187
77.854,-316.8,-12.1205
78.2567,-316.8,-12.1181
78.6593,-316.8,-12.1213
79.0588,-316.8,-12.1219
79.4608,-316.8,-12.1149
79.8608,-316.8,-12.1153
80.2633,-316.8,-12.1163
80.6642,-316.8,-12.1179
81.0642,-316.8,-12.111
81.4646,-316.8,-12.1173
81.8656,-316.8,-12.1183
82.2668,-316.8,-12.1086
82.6668,-316.8,-12.1041
83.0689,-316.8,-12.111
83.4692,-316.8,-12.1054
83.8691,-316.8,-12.1046
84.2702,-316.8,-12.1017
84.6723,-316.8,-12.108
85.0723,-316.8,-12.1007
85.4722,-316.8,-12.1027
85.873,-316.8,-12.1017
86.2736,-316.8,-12.0961
86.6767,-316.8,-12.0989
87.0802,-316.8,-12.095
87.4814,-316.8,-12.1029
87.8806,-316.8,-12.095
88.2822,-316.8,-12.1068
88.6829,-316.8,-12.0993
89.083,-316.8,-12.1003
89.4844,-316.8,-12.0936
89.8839,-316.8,-12.0973
90.2856,-316.8,-12.0872
90.6883,-316.8,-12.0969
91.0887,-316.8,-12.0965
91.4898,-316.8,-12.0918
91.8905,-316.8,-12.0898
92.2921,-316.8,-12.0965
92.6915,-316.8,-12.0857
93.0944,-316.8,-12.0902
93.4943,-316.8,-12.0959
93.8944,-316.8,-12.0894
94.2963,-316.8,-12.0894
94.6995,-316.8,-12.0843
95.0998,-316.8,-12.0835
95.5011,-316.8,-12.0825
95.9026,-316.8,-12.074
96.3042,-316.8,-12.0803
96.7046,-316.8,-12.0732
97.104,-316.8,-12.0831
97.5065,-316.8,-12.0756
97.907,-316.8,-12.0764
98.3077,-316.8,-12.0706
98.7096,-316.8,-12.0771
99.1118,-316.8,-12.0754
99.5125,-316.8,-12.0764
99.9127,-316.8,-12.0811
100.315,-316.8,-12.0688
100.7174,-316.8,-12.0694
101.1198,-316.8,-12.0728
101.5219,-316.8,-12.0665
101.9235,-316.8,-12.0678
102.3238,-316.8,-12.0704
102.7246,-316.8,-12.0657
103.1253,-316.8,-12.0678
103.5261,-316.8,-12.0643
103.9261,-316.8,-12.0673
104.3284,-316.8,-12.0667
104.7297,-316.8,-12.0619
105.1326,-316.8,-12.0678
105.5337,-316.8,-12.0673
105.9347,-316.8,-12.0627
106.337,-316.8,-12.0611
106.7374,-316.8,-12.07
107.1369,-316.8,-12.0593
107.5404,-316.8,-12.0615
107.9415,-316.8,-12.0605
108.3415,-316.8,-12.0649
108.7408,-316.8,-12.0572
109.1434,-316.8,-12.0613
109.5456,-316.8,-12.0605
109.9476,-316.8,-12.0574
110.3505,-316.8,-12.0526
110.7532,-316.8,-12.0512
111.1554,-316.8,-12.0475
111.5563,-316.8,-12.0544
111.958,-316.8,-12.0548
112.3604,-316.8,-12.0526
112.7604,-316.8,-12.0536
113.1617,-316.8,-12.0526
113.5609,-316.8,-12.0508
113.9628,-316.8,-12.0506
114.3639,-316.8,-12.0574
114.7669,-316.8,-12.0485
115.169,-316.8,-12.0516
115.5693,-316.8,-12.0487
115.9693,-316.8,-12.0481
116.3706,-316.8,-12.0477
116.7718,-316.8,-12.0463
117.1718,-316.8,-12.0447
117.5738,-316.8,-12.0449
117.9749,-316.8,-12.0467
118.3772,-316.8,-12.0483
118.7775,-316.8,-12.0429
119.1795,-316.8,-12.0364
119.5799,-316.8,-12.0425
119.9814,-316.8,-12.0465
120.3828,-316.8,-12.0396
120.7824,-316.8,-12.0378
121.182,-316.8,-12.0376
121.5832,-316.8,-12.0411
121.9849,-316.8,-12.0384
122.387,-316.8,-12.0382
122.7871,-316.8,-12.0392
123.1872,-316.8,-12.0396
123.5872,-316.8,-12.0352
123.9875,-316.8,-12.033
124.3887,-316.8,-12.035
124.7885,-316.8,-12.038
125.1879,-316.8,-12.036
125.59,-316.8,-12.031
125.992,-316.8,-12.0372
126.3943,-316.8,-12.0287
126.7956,-316.8,-12.0352
127.196,-316.8,-12.0293
127.5985,-316.8,-12.0336
127.998,-316.8,-12.0243
128.4011,-316.8,-12.0265
128.8024,-316.8,-12.0265
129.203,-316.8,-12.0295
129.6036,-316.8,-12.0271
130.0045,-316.8,-12.0249
130.4056,-316.8,-12.0285
130.8058,-316.8,-12.0194
131.2053,-316.8,-12.021
131.6078,-316.8,-12.0186
132.0072,-316.8,-12.0146
132.4096,-316.8,-12.0249
132.8113,-316.8,-12.0253
133.2147,-316.8,-12.0168
133.615,-316.8,-12.0255
134.0167,-316.8,-12.0215
134.4173,-316.8,-12.0174
134.817,-316.8,-12.0204
135.2183,-316.8,-12.0265
135.6195,-316.8,-12.0237
136.0194,-316.8,-12.0229
136.4192,-316.8,-12.0212
136.8193,-316.8,-12.017
137.2209,-316.8,-12.0136
137.6216,-316.8,-12.016
138.022,-316.8,-12.0166
138.4242,-316.8,-12.016
138.8247,-316.8,-12.0136
139.225,-316.8,-12.0022
139.6267,-316.8,-12.0087
140.0277,-316.8,-12.0081
140.4283,-316.8,-12.0107
140.8293,-316.8,-12.014
141.2308,-316.8,-12.0134
141.6317,-316.8,-12.0138
142.034,-316.8,-12.0148
142.4361,-316.8,-12.0093
142.8407,-316.8,-12.0075
143.2418,-316.8,-12.0067
143.6437,-316.8,-12.0111
144.045,-316.8,-12.0043
144.4459,-316.8,-12.0063
144.8466,-316.8,-12.0037
145.2462,-316.8,-11.9988
145.6489,-316.8,-12.0031
146.0498,-316.8,-12.0041
146.4495,-316.8,-11.9994
146.8492,-316.8,-11.9944
147.25,-316.8,-11.9992
147.6518,-316.8,-11.9982
148.0532,-316.8,-11.9992
148.4559,-316.8,-11.9921
148.8555,-316.8,-11.9956
149.2574,-316.8,-12.0002
149.6607,-316.8,-11.9956
150.0625,-316.8,-12.0047
150.4648,-316.8,-11.998
150.8652,-316.8,-11.9974
151.2669,-316.8,-11.9911
151.6688,-316.8,-11.995
152.0715,-316.8,-11.9903
152.4736,-316.8,-11.9915
152.8757,-316.8,-12.0033
153.2762,-316.8,-11.9956
153.6774,-316.8,-11.9972
154.0774,-316.8,-11.9936
154.4774,-316.8,-11.9966
154.8774,-316.8,-11.9988
155.2786,-316.8,-11.9984
155.6808,-316.8,-11.9972
156.0805,-316.8,-11.9885
156.4813,-316.8,-11.983
156.8836,-316.8,-11.9853
157.2851,-316.8,-11.9875
157.6848,-316.8,-11.9897
158.0868,-316.8,-11.9861
158.4881,-316.8,-11.9895
158.891,-316.8,-11.9863
159.2908,-316.8,-11.9818
159.6921,-316.8,-11.9873
160.0929,-316.8,-11.9885
160.4936,-316.8,-11.9828
160.8938,-316.8,-11.9845
161.2934,-316.8,-11.9849
161.6969,-316.8,-11.9867
162.0962,-316.8,-11.9838
162.4975,-316.8,-11.9798
162.8998,-316.8,-11.9832
163.3003,-316.8,-11.9832
163.7024,-316.8,-11.982
164.104,-316.8,-11.9853
164.5045,-316.8,-11.983
164.9064,-316.8,-11.9806
165.3083,-316.8,-11.9737
165.7109,-316.8,-11.9792
166.113,-316.8,-11.9796
166.5122,-316.8,-11.9762
166.9145,-316.8,-11.9776
167.3154,-316.8,-11.9814
167.7169,-316.8,-11.981
168.1184,-316.8,-11.9685
168.5199,-316.8,-11.9772
168.9217,-316.8,-11.978
169.3239,-316.8,-11.9725
169.7252,-316.8,-11.9715
170.1243,-316.8,-11.9683
170.527,-316.8,-11.9719
170.9289,-316.8,-11.9634
171.33,-316.8,-11.9721
171.7296,-316.8,-11.9685
172.1299,-316.8,-11.9624
172.5303,-316.8,-11.9632
172.9312,-316.8,-11.9685
173.3314,-316.8,-11.9659
173.7323,-316.8,-11.9681
174.1334,-316.8,-11.9572
174.537,-316.8,-11.9739
174.9388,-316.8,-11.9563
175.3405,-316.8,-11.9677
175.7407,-316.8,-11.9679
176.143,-316.8,-11.9656
176.5435,-316.8,-11.9545
176.9453,-316.8,-11.9697
177.3452,-316.8,-11.965
177.7455,-316.8,-11.9596
178.1477,-316.8,-11.9572
178.5476,-316.8,-11.9675
178.9477,-316.8,-11.9628
179.3477,-316.8,-11.962
179.7483,-316.8,-11.9592
180.1477,-316.8,-11.9648
180.5496,-316.8,-11.9481
180.9504,-316.8,-11.9648
181.3529,-316.8,-11.9695
181.7549,-316.8,-11.9563
182.1557,-316.8,-11.9566
182.5554,-316.8,-11.9551
182.9568,-316.8,-11.9511
183.3577,-316.8,-11.9497
183.7598,-316.8,-11.9606
184.1598,-316.8,-11.9541
184.56,-316.8,-11.9519
184.9598,-316.8,-11.9559
185.3596,-316.8,-11.9491
185.7601,-316.8,-11.9446
186.1641,-316.8,-11.9513
186.5635,-316.8,-11.9442
186.9646,-316.8,-11.9519
187.3653,-316.8,-11.9513
187.7668,-316.8,-11.9481
188.1675,-316.8,-11.9545
188.5703,-316.8,-11.9576
188.9731,-316.8,-11.9531
189.3741,-316.8,-11.9458
189.7751,-316.8,-11.9444
190.1756,-316.8,-11.9466
190.5775,-316.8,-11.9418
190.9792,-316.8,-11.9507
191.3805,-316.8,-11.9477
191.7814,-316.8,-11.9442
192.1842,-316.8,-11.9384
192.5852,-316.8,-11.9446
192.985,-316.8,-11.9499
193.3856,-316.8,-11.9442
193.7876,-316.8,-11.9422
194.1878,-316.8,-11.9436
194.5891,-316.8,-11.94
194.9898,-316.8,-11.9432
195.3912,-316.8,-11.9377
195.7923,-316.8,-11.9456
196.1932,-316.8,-11.9402
196.5927,-316.8,-11.9426
196.9955,-316.8,-11.9329
197.3974,-316.8,-11.9398
197.7975,-316.8,-11.9422
198.2011,-316.8,-11.9404
198.6035,-316.8,-11.942
199.0048,-316.8,-11.9371
199.4047,-316.8,-11.9377
199.8075,-316.8,-11.9428
200.2102,-316.8,-11.9349
200.6101,-316.8,-11.9315
201.012,-316.8,-11.9341
201.4129,-316.8,-11.9396
201.8139,-316.8,-11.9414
202.2164,-316.8,-11.9373
202.6166,-316.8,-11.9359
203.0193,-316.8,-11.9377
203.4202,-316.8,-11.9311
203.8224,-316.8,-11.9396
204.2241,-316.8,-11.9339
204.6253,-316.8,-11.9373
205.0257,-316.8,-11.9347
205.4267,-316.8,-11.9321
205.8277,-316.8,-11.9282
206.2278,-316.8,-11.9333
206.6294,-316.8,-11.9303
207.0316,-316.8,-11.9299
207.4327,-316.8,-11.9274
207.8333,-316.8,-11.9315
208.2341,-316.8,-11.9301
208.6362,-316.8,-11.9246
209.0382,-316.8,-11.9278
209.4387,-316.8,-11.9244
209.84,-316.8,-11.9305
210.2402,-316.8,-11.9335
210.6399,-316.8,-11.9185
211.0399,-316.8,-11.9284
211.4402,-316.8,-11.9301
211.84,-316.8,-11.9202
212.2412,-316.8,-11.928
212.6409,-316.8,-11.9276
213.0445,-316.8,-11.9198
213.4461,-316.8,-11.9212
213.848,-316.8,-11.9244
214.2497,-316.8,-11.9123
214.6521,-316.8,-11.9264
215.055,-316.8,-11.921
215.4547,-316.8,-11.9248
215.8561,-316.8,-11.9185
216.2585,-316.8,-11.924
216.6608,-316.8,-11.9216
217.0613,-316.8,-11.9198
217.4623,-316.8,-11.9183
217.8629,-316.8,-11.9224
218.2629,-316.8,-11.9159
218.6631,-316.8,-11.9157
219.063,-316.8,-11.9092
219.4636,-316.8,-11.9236
219.8647,-316.8,-11.9121
220.2651,-316.8,-11.9193
220.6668,-316.8,-11.9189
221.0683,-316.8,-11.9226
221.4693,-316.8,-11.9171
221.8704,-316.8,-11.9096
222.2716,-316.8,-11.9155
222.6722,-316.8,-11.9105
223.0721,-316.8,-11.9084
223.4739,-316.8,-11.9129
223.8752,-316.8,-11.9153
224.2774,-316.8,-11.9151
224.6773,-316.8,-11.9066
225.0775,-316.8,-11.9109
225.4795,-316.8,-11.9064
225.8801,-316.8,-11.9098
226.2812,-316.8,-11.9149
226.6826,-316.8,-11.9198
227.0833,-316.8,-11.91
227.4855,-316.8,-11.9064
227.8849,-316.8,-11.9098
228.2863,-316.8,-11.9102
228.6873,-316.8,-11.9147
229.0874,-316.8,-11.9117
229.4905,-316.8,-11.9133
229.8904,-316.8,-11.907
230.2919,-316.8,-11.9062
230.6934,-316.8,-11.9105
231.0936,-316.8,-11.9082
231.4941,-316.8,-11.9052
231.8945,-316.8,-11.9105
232.2952,-316.8,-11.9115
232.6956,-316.8,-11.9092
233.0978,-316.8,-11.9032
233.4981,-316.8,-11.9042
233.8981,-316.8,-11.9007
234.2981,-316.8,-11.9102
234.6981,-316.8,-11.9032
235.0984,-316.8,-11.9111
235.501,-316.8,-11.9018
235.9024,-316.8,-11.908
236.3029,-316.8,-11.9007
236.7056,-316.8,-11.9007
237.1068,-316.8,-11.902
237.5089,-316.8,-11.9042
237.9101,-316.8,-11.902
238.3124,-316.8,-11.8957
238.7132,-316.8,-11.9024
239.1133,-316.8,-11.9022
239.5131,-316.8,-11.8943
239.9131,-316.8,-11.904
240.3134,-316.8,-11.903
240.7149,-316.8,-11.9009
241.116,-316.8,-11.8904
241.5177,-316.8,-11.8991
241.9176,-316.8,-11.9117
242.317,-316.8,-11.8933
242.7186,-316.8,-11.8894
243.1194,-316.8,-11.8844
243.5204,-316.8,-11.8945
243.9204,-316.8,-11.8931
244.3203,-316.8,-11.8975
244.7199,-316.8,-11.8975
245.1221,-316.8,-11.8995
245.523,-316.8,-11.8953
245.925,-316.8,-11.8939
246.3255,-316.8,-11.8914
246.726,-316.8,-11.8953
247.1265,-316.8,-11.8967
247.5268,-316.8,-11.8961
247.9278,-316.8,-11.8904
248.3283,-316.8,-11.8902
248.7297,-316.8,-11.8931
249.1316,-316.8,-11.8898
249.5316,-316.8,-11.8963
249.9328,-316.8,-11.8989
250.3346,-316.8,-11.8933
250.7346,-316.8,-11.8923
251.137,-316.8,-11.8941
251.5398,-316.8,-11.8878
251.9414,-316.8,-11.8866
252.3435,-316.8,-11.8902
252.7454,-316.8,-11.8929
253.1464,-316.8,-11.8834
253.5465,-316.8,-11.889
253.9482,-316.8,-11.884
254.3484,-316.8,-11.8862
254.7483,-316.8,-11.8933
255.1483,-316.8,-11.8931
255.5483,-316.8,-11.8898
255.9498,-316.8,-11.8908
256.3497,-316.8,-11.8864
256.7504,-316.8,-11.8884
257.1531,-316.8,-11.8813
257.555,-316.8,-11.8862
257.9549,-316.8,-11.8815
258.3565,-316.8,-11.8769
258.7562,-316.8,-11.8902
259.1563,-316.8,-11.8874
259.5576,-316.8,-11.884
259.9596,-316.8,-11.8844
260.3606,-316.8,-11.8767
260.7608,-316.8,-11.8811
261.162,-316.8,-11.8823
261.563,-316.8,-11.8821
261.9643,-316.8,-11.8783
262.3643,-316.8,-11.8868
262.7672,-316.8,-11.8759
263.1686,-316.8,-11.8759
263.5686,-316.8,-11.8759
263.9681,-316.8,-11.8749
264.3708,-316.8,-11.8803
264.7708,-316.8,-11.8702
265.1709,-316.8,-11.8856
265.5726,-316.8,-11.8781
265.9731,-316.8,-11.8771
266.3735,-316.8,-11.8846
266.7746,-316.8,-11.8777
267.1751,-316.8,-11.8741
267.577,-316.8,-11.8644
267.9772,-316.8,-11.8631
268.3785,-316.8,-11.8749
268.7785,-316.8,-11.8767
269.1797,-316.8,-11.8735
269.5818,-316.8,-11.87
269.9839,-316.8,-11.8741
270.3846,-316.8,-11.8722
270.7859,-316.8,-11.8658
271.1873,-316.8,-11.87
271.5906,-316.8,-11.8718
271.9937,-316.8,-11.8739
272.3955,-316.8,-11.8656
272.7965,-316.8,-11.8694
273.1996,-316.8,-11.8724
273.6002,-316.8,-11.8753
274.0007,-316.8,-11.8745
274.4007,-316.8,-11.8688
274.8002,-316.8,-11.8757
275.2005,-316.8,-11.8664
275.6009,-316.8,-11.8684
276.0022,-316.8,-11.8625
276.4024,-316.8,-11.8728
276.8039,-316.8,-11.8696
277.2046,-316.8,-11.8728
277.6053,-316.8,-11.8603
278.0068,-316.8,-11.8607
278.407,-316.8,-11.8664
278.8092,-316.8,-11.8654
279.2102,-316.8,-11.8577
279.6097,-316.8,-11.8712
280.0099,-316.8,-11.8557
280.4111,-316.8,-11.872
280.8119,-316.8,-11.8609
281.2125,-316.8,-11.8658
281.6148,-316.8,-11.8538
282.0161,-316.8,-11.8613
282.4153,-316.8,-11.8617
282.8153,-316.8,-11.866
283.2162,-316.8,-11.8654
283.6171,-316.8,-11.8633
284.0165,-316.8,-11.8696
284.4169,-316.8,-11.8597
284.8186,-316.8,-11.8652
285.2193,-316.8,-11.8603
285.6209,-316.8,-11.8573
286.0233,-316.8,-11.8573
286.4271,-316.8,-11.8621
286.8293,-316.8,-11.8613
287.2321,-316.8,-11.8597
287.6325,-316.8,-11.8573
288.0323,-316.8,-11.8567
288.435,-316.8,-11.8601
288.8355,-316.8,-11.8635
289.2386,-316.8,-11.869
289.6407,-316.8,-11.8619
290.0439,-316.8,-11.8609
290.4439,-316.8,-11.8611
290.8461,-316.8,-11.8571
291.246,-316.8,-11.8629
291.6462,-316.8,-11.8607
292.046,-316.8,-11.8573
292.446,-316.8,-11.8591
292.846,-316.8,-11.8571
293.2478,-316.8,-11.85
293.6487,-316.8,-11.8526
294.0513,-316.8,-11.8617
294.4511,-316.8,-11.8577
294.8535,-316.8,-11.8549
295.2563,-316.8,-11.8506
295.656,-316.8,-11.85
296.058,-316.8,-11.852
296.4598,-316.8,-11.8504
296.8599,-316.8,-11.8488
297.2624,-316.8,-11.852
297.6632,-316.8,-11.8516
298.063,-316.8,-11.8417
298.4645,-316.8,-11.853
298.8655,-316.8,-11.8512
299.2664,-316.8,-11.8458
299.666,-316.8,-11.8518
300.0671,-316.8,-11.853
300.4667,-316.8,-11.8526
300.8673,-316.8,-11.854
301.2682,-316.8,-11.8502
301.6675,-316.8,-11.8553
302.0698,-316.8,-11.8534
302.471,-316.8,-11.848
302.872,-316.8,-11.8464
303.2719,-316.8,-11.8536
303.6729,-316.8,-11.8371
304.0736,-316.8,-11.8502
304.4749,-316.8,-11.8516
304.8771,-316.8,-11.8567
305.2765,-316.8,-11.8484
305.6776,-316.8,-11.8468
306.0805,-316.8,-11.85
306.4824,-316.8,-11.8504
306.8835,-316.8,-11.8478
307.2847,-316.8,-11.8397
307.6853,-316.8,-11.8411
308.0852,-316.8,-11.8383
308.4863,-316.8,-11.8431
308.8862,-316.8,-11.8419
309.2868,-316.8,-11.8455
309.6879,-316.8,-11.8464
310.089,-316.8,-11.8433
310.4913,-316.8,-11.8407
310.8931,-316.8,-11.8423
311.2941,-316.8,-11.8445
311.6942,-316.8,-11.8415
312.0947,-316.8,-11.849
312.4951,-316.8,-11.8362
312.895,-316.8,-11.852
313.2951,-316.8,-11.8421
313.6957,-316.8,-11.8431
314.097,-316.8,-11.8369
314.499,-316.8,-11.8451
314.9003,-316.8,-11.8447
315.3009,-316.8,-11.829
315.7021,-316.8,-11.8367
316.1053,-316.8,-11.8336
316.5061,-316.8,-11.8399
316.9072,-316.8,-11.8393
317.3084,-316.8,-11.8433
317.7087,-316.8,-11.8381
318.1101,-316.8,-11.8445
318.512,-316.8,-11.8365
318.9121,-316.8,-11.8342
319.3134,-316.8,-11.8407
319.714,-316.8,-11.8379
320.1146,-316.8,-11.8411
320.5158,-316.8,-11.8354
320.9186,-316.8,-11.8393
321.3188,-316.8,-11.8393
321.7189,-316.8,-11.8352
322.119,-316.8,-11.8401
322.5187,-316.8,-11.8381
322.9189,-316.8,-11.829
323.3203,-316.8,-11.833
323.7212,-316.8,-11.8267
324.1214,-316.8,-11.836
324.5206,-316.8,-11.8304
324.9214,-316.8,-11.8373
325.3212,-316.8,-11.8354
325.7213,-316.8,-11.8338
326.1237,-316.8,-11.8371
326.5249,-316.8,-11.8274
326.9267,-316.8,-11.8274
327.3282,-316.8,-11.8235
327.7285,-316.8,-11.8395
328.1297,-316.8,-11.8308
328.5312,-316.8,-11.8391
328.9313,-316.8,-11.8298
329.3313,-316.8,-11.831
329.7307,-316.8,-11.8431
330.1325,-316.8,-11.8235
330.5337,-316.8,-11.8217
330.9342,-316.8,-11.8261
331.3344,-316.8,-11.8306
331.7349,-316.8,-11.836
332.1365,-316.8,-11.8219
332.5365,-316.8,-11.8245
332.9365,-316.8,-11.835
333.3375,-316.8,-11.8286
333.7386,-316.8,-11.8261
334.1391,-316.8,-11.8296
334.5414,-316.8,-11.8251
334.9434,-316.8,-11.8199
335.3435,-316.8,-11.8259
335.7429,-316.8,-11.8284
336.1427,-316.8,-11.8338
336.5467,-316.8,-11.8304
336.9466,-316.8,-11.8229
337.346,-316.8,-11.8263
337.7467,-316.8,-11.8312
338.1487,-316.8,-11.8251
338.5487,-316.8,-11.831
338.949,-316.8,-11.8284
339.3491,-316.8,-11.8263
339.7491,-316.8,-11.8217
340.1506,-316.8,-11.8209
340.5508,-316.8,-11.8328
340.9512,-316.8,-11.8205
341.3515,-316.8,-11.8229
341.7515,-316.8,-11.8225
342.1525,-316.8,-11.8227
342.553,-316.8,-11.8183
342.9556,-316.8,-11.8223
343.3564,-316.8,-11.8209
343.7562,-316.8,-11.8219
344.1574,-316.8,-11.8215
344.5588,-316.8,-11.8237
344.9592,-316.8,-11.8203
345.3609,-316.8,-11.8176
345.7609,-316.8,-11.8243
346.1629,-316.8,-11.8199
346.563,-316.8,-11.8203
346.9643,-316.8,-11.8209
347.3668,-316.8,-11.813
347.7664,-316.8,-11.8164
348.167,-316.8,-11.8185
348.5692,-316.8,-11.815
348.9702,-316.8,-11.812
349.3716,-316.8,-11.8114
349.771,-316.8,-11.8156
350.1716,-316.8,-11.8138
350.5713,-316.8,-11.8108
350.9712,-316.8,-11.8108
351.3716,-316.8,-11.8096
351.7716,-316.8,-11.8124
352.1714,-316.8,-11.8164
352.5748,-316.8,-11.8185
352.9746,-316.8,-11.8124
353.375,-316.8,-11.8144
353.7751,-316.8,-11.8092
354.1776,-316.8,-11.8104
354.5783,-316.8,-11.8096
354.9791,-316.8,-11.8148
355.3793,-316.8,-11.8079
355.7792,-316.8,-11.8187
356.1793,-316.8,-11.8183
356.5792,-316.8,-11.8132
356.9792,-316.8,-11.8134
357.38,-316.8,-11.8049
357.7811,-316.8,-11.8085
358.183,-316.8,-11.7999
358.5854,-316.8,-11.7997
358.9863,-316.8,-11.8029
359.3876,-316.8,-11.8025
359.788,-316.8,-11.8041
360.1893,-316.8,-11.8126
360.5893,-316.8,-11.8112
360.9893,-316.8,-11.8075
361.3914,-316.8,-11.8102
361.7916,-316.8,-11.8017
362.1915,-316.8,-11.8088
362.5916,-316.8,-11.8094
362.9926,-316.8,-11.8041
363.3923,-316.8,-11.811
363.7939,-316.8,-11.8045
364.1942,-316.8,-11.8043
364.5952,-316.8,-11.8013
364.9971,-316.8,-11.799
365.3972,-316.8,-11.8031
365.7979,-316.8,-11.8023
366.1979,-316.8,-11.809
366.5972,-316.8,-11.8051
366.9976,-316.8,-11.8031
367.3979,-316.8,-11.8031
367.7972,-316.8,-11.8104
368.1975,-316.8,-11.8102
368.5982,-316.8,-11.7986
368.9993,-316.8,-11.794
369.3994,-316.8,-11.8017
369.7993,-316.8,-11.8085
370.1993,-316.8,-11.8092
370.5995,-316.8,-11.796
370.9993,-316.8,-11.7976
371.3994,-316.8,-11.8051
371.7993,-316.8,-11.8005
372.2016,-316.8,-11.7988
372.6028,-316.8,-11.8027
373.0032,-316.8,-11.8027
373.4048,-316.8,-11.7924
373.807,-316.8,-11.7992
374.207,-316.8,-11.7926
374.6068,-316.8,-11.8045
375.0071,-316.8,-11.7952
375.4094,-316.8,-11.8019
375.8094,-316.8,-11.7966
376.2107,-316.8,-11.7904
376.6115,-316.8,-11.7962
377.0117,-316.8,-11.7942
377.4118,-316.8,-11.7986
377.8119,-316.8,-11.792
378.2125,-316.8,-11.7865
378.6141,-316.8,-11.7938
379.017,-316.8,-11.7887
379.4168,-316.8,-11.7982
379.8182,-316.8,-11.7928
380.22,-316.8,-11.7916
380.6195,-316.8,-11.7916
381.0195,-316.8,-11.8029
381.4219,-316.8,-11.7956
381.8217,-316.8,-11.7893
382.2214,-316.8,-11.7867
382.6218,-316.8,-11.7855
383.0215,-316.8,-11.7893
383.4218,-316.8,-11.7867
383.8219,-316.8,-11.7806
384.2218,-316.8,-11.7871
384.6234,-316.8,-11.7928
385.0239,-316.8,-11.7839
385.4249,-316.8,-11.7869
385.8272,-316.8,-11.7855
386.2296,-316.8,-11.7841
386.6315,-316.8,-11.7857
387.0316,-316.8,-11.7766
387.432,-316.8,-11.7871
387.8319,-316.8,-11.7916
388.2326,-316.8,-11.7843
388.633,-316.8,-11.7904
389.0336,-316.8,-11.7895
389.4344,-316.8,-11.78
389.8349,-316.8,-11.7871
390.2359,-316.8,-11.7863
390.6372,-316.8,-11.7912
391.0377,-316.8,-11.7881
391.4395,-316.8,-11.7819
391.8395,-316.8,-11.7875
392.2396,-316.8,-11.7873
392.6394,-316.8,-11.7857
393.0403,-316.8,-11.779
393.4408,-316.8,-11.7855
393.8413,-316.8,-11.7839
394.2418,-316.8,-11.7811
394.6417,-316.8,-11.7766
395.0429,-316.8,-11.7796
395.4442,-316.8,-11.7748
395.8448,-316.8,-11.7843
396.2462,-316.8,-11.779
396.6465,-316.8,-11.7804
397.0475,-316.8,-11.7813
397.4491,-316.8,-11.7788
397.8487,-316.8,-11.7804
398.249,-316.8,-11.7782
398.6485,-316.8,-11.7774
399.0496,-316.8,-11.7722
399.4497,-316.8,-11.7705
399.8496,-316.8,-11.775
400.2495,-316.8,-11.7738
400.6521,-316.8,-11.7786
401.0521,-316.8,-11.7813
401.4521,-316.8,-11.7766
401.852,-316.8,-11.7713
402.2521,-316.8,-11.7713
402.6543,-316.8,-11.7772
403.0553,-316.8,-11.7726
403.4559,-316.8,-11.7736
403.8583,-316.8,-11.7689
404.2582,-316.8,-11.7774
404.6579,-316.8,-11.7762
405.0575,-316.8,-11.7667
405.4599,-316.8,-11.7713
405.8628,-316.8,-11.7756
406.2633,-316.8,-11.775
406.6645,-316.8,-11.7742
407.0666,-316.8,-11.773
407.4695,-316.8,-11.7649
407.8697,-316.8,-11.7705
408.2707,-316.8,-11.7661
408.6714,-316.8,-11.7629
409.072,-316.8,-11.7663
409.4722,-316.8,-11.7683
409.8718,-316.8,-11.7724
410.2721,-316.8,-11.7673
410.6719,-316.8,-11.7675
411.0718,-316.8,-11.7831
411.4722,-316.8,-11.7679
411.8725,-316.8,-11.7748
412.2724,-316.8,-11.7689
412.6744,-316.8,-11.7701
413.0759,-316.8,-11.7697
413.4774,-316.8,-11.7683
413.8796,-316.8,-11.7631
414.2798,-316.8,-11.7699
414.6805,-316.8,-11.7645
415.0822,-316.8,-11.7681
415.4845,-316.8,-11.7711
415.8848,-316.8,-11.7718
416.2868,-316.8,-11.7671
416.687,-316.8,-11.7558
417.0882,-316.8,-11.759
417.4879,-316.8,-11.7669
417.8889,-316.8,-11.7635
418.2899,-316.8,-11.7703
418.6898,-316.8,-11.7639
419.0925,-316.8,-11.7625
419.4935,-316.8,-11.7661
419.8942,-316.8,-11.7724
420.2967,-316.8,-11.772
420.6975,-316.8,-11.7562
421.0981,-316.8,-11.7667
421.4986,-316.8,-11.7728
421.9013,-316.8,-11.7675
422.3021,-316.8,-11.7643
422.7021,-316.8,-11.7568
423.1023,-316.8,-11.7637
423.5021,-316.8,-11.7582
423.9022,-316.8,-11.7598
424.3023,-316.8,-11.7572
424.7021,-316.8,-11.756
425.1032,-316.8,-11.7657
425.5041,-316.8,-11.7501
425.9046,-316.8,-11.7568
426.3053,-316.8,-11.7483
426.7071,-316.8,-11.7532
427.1081,-316.8,-11.754
427.5079,-316.8,-11.7562
427.9089,-316.8,-11.762
428.3095,-316.8,-11.7525
428.7093,-316.8,-11.7641
429.1093,-316.8,-11.7556
429.509,-316.8,-11.7562
429.9096,-316.8,-11.7645
430.3112,-316.8,-11.7576
430.7121,-316.8,-11.7538
431.1134,-316.8,-11.7513
431.5146,-316.8,-11.7499
431.9162,-316.8,-11.7509
432.316,-316.8,-11.7527
432.7175,-316.8,-11.7542
433.1169,-316.8,-11.7544
433.5174,-316.8,-11.754
433.9206,-316.8,-11.7495
434.3206,-316.8,-11.7455
434.7222,-316.8,-11.7596
435.1223,-316.8,-11.7509
435.5224,-316.8,-11.7527
435.9244,-316.8,-11.7404
436.3257,-316.8,-11.755
436.7277,-316.8,-11.7461
437.1277,-316.8,-11.7495
437.5287,-316.8,-11.7572
437.93,-316.8,-11.7396
438.3305,-316.8,-11.7477
438.73,-316.8,-11.7552
439.1305,-316.8,-11.7441
439.5324,-316.8,-11.7445
439.9324,-316.8,-11.7483
440.3339,-316.8,-11.7439
440.7365,-316.8,-11.7463
441.1376,-316.8,-11.7414
441.5391,-316.8,-11.7449
441.9396,-316.8,-11.7439
442.34,-316.8,-11.7469
442.7411,-316.8,-11.7406
443.1433,-316.8,-11.7453
443.5436,-316.8,-11.7453
443.9431,-316.8,-11.7434
444.3431,-316.8,-11.7453
444.7446,-316.8,-11.7479
445.1447,-316.8,-11.743
445.5457,-316.8,-11.7511
445.9479,-316.8,-11.7439
446.348,-316.8,-11.736
446.7488,-316.8,-11.7394
447.1494,-316.8,-11.7467
447.5491,-316.8,-11.7255
447.9511,-316.8,-11.7451
448.351,-316.8,-11.741
448.7514,-316.8,-11.7436
449.1525,-316.8,-11.7473
449.5525,-316.8,-11.7523
449.9524,-316.8,-11.7414
450.3541,-316.8,-11.7461
450.7542,-316.8,-11.7449
451.1551,-316.8,-11.7404
451.5551,-316.8,-11.7333
451.9554,-316.8,-11.742
452.3548,-316.8,-11.7396
452.7553,-316.8,-11.7398
453.1575,-316.8,-11.7467
453.5571,-316.8,-11.7424
453.9599,-316.8,-11.735
454.3606,-316.8,-11.7402
454.7617,-316.8,-11.7443
455.1609,-316.8,-11.7416
455.5625,-316.8,-11.7339
455.9622,-316.8,-11.7439
456.3633,-316.8,-11.7487
456.7638,-316.8,-11.7362
457.1643,-316.8,-11.7426
457.5669,-316.8,-11.738
457.9683,-316.8,-11.7414
458.3685,-316.8,-11.7406
458.7696,-316.8,-11.74
459.1698,-316.8,-11.7374
459.5695,-316.8,-11.7305
459.9702,-316.8,-11.7388
460.3728,-316.8,-11.7329
460.7721,-316.8,-11.741
461.1741,-316.8,-11.7356
461.5749,-316.8,-11.7345
461.9759,-316.8,-11.7319
462.3777,-316.8,-11.7354
462.7776,-316.8,-11.7374
463.1795,-316.8,-11.7271
463.5802,-316.8,-11.743
463.9826,-316.8,-11.7285
464.3836,-316.8,-11.7303
464.7849,-316.8,-11.7345
465.1864,-316.8,-11.7317
465.5877,-316.8,-11.7339
465.9884,-316.8,-11.7307
466.3913,-316.8,-11.7345
466.7923,-316.8,-11.7305
467.1928,-316.8,-11.7331
467.5925,-316.8,-11.7186
467.9944,-316.8,-11.7267
468.4163,-314.885,-11.7307
468.8175,-312.218,-11.7291
469.2186,-309.553,-11.688
469.6196,-306.886,-3.39154
470.0199,-304.221,0.912604
470.42,-301.555,2.77838
470.8216,-298.854,3.52728
471.2227,-296.186,3.73957
471.6248,-293.518,3.75453
472.0274,-290.817,3.67447
472.4269,-288.185,3.56933
472.8279,-285.485,3.45287
473.2278,-282.819,3.36027
473.628,-280.153,3.28667
474.0281,-277.485,3.22966
474.4289,-274.816,3.15101
474.8303,-272.148,3.13483
475.23,-269.482,3.12735
475.6311,-266.846,3.17183
476.0327,-266.799,3.20883
476.4345,-266.8,3.28142
476.8342,-266.8,3.32388
477.2562,-265.567,3.34753
477.6568,-262.9,3.33581
478.056,-260.234,3.31276
478.4568,-257.568,3.36775
478.8587,-254.902,3.45368
479.2585,-252.235,3.49836
479.6585,-249.569,3.49412
480.059,-246.901,3.48927
480.4594,-244.235,3.48583
480.8613,-241.535,3.50746
481.2646,-238.835,3.51919
481.665,-236.203,3.48563
482.0657,-233.503,3.47147
482.4683,-230.837,3.48381
482.8684,-228.171,3.483
483.2699,-225.502,3.47066
483.6715,-222.8,3.46945
484.0727,-220.134,3.47127
484.4728,-217.465,3.47188
484.8733,-216.799,3.4737
485.276,-216.799,3.46824
485.6758,-216.8,3.47147