File: Tinius-Olsen_Levitation_force/Preprocessed_measures/20231204_1541YBCOs1_sl9_4.txt.csv
Time(s),Displacement(mm),Force(N)
0.0,-315.495,0.994894
0.22,-314.431,3.95106
0.42,-313.098,4.51031
0.62,-311.764,4.62757
0.8194,-310.431,4.59482
1.02,-309.098,4.48827
1.221,-307.765,4.34755
1.4207,-306.432,4.20035
1.6208,-305.062,4.04588
1.8215,-303.729,3.91062
2.0216,-302.397,3.78486
2.2216,-301.064,3.67467
2.4217,-299.73,3.576
2.6212,-298.397,3.48158
2.8238,-297.064,3.41102
3.0234,-295.732,3.34895
3.2242,-294.398,3.28627
3.4258,-293.065,3.24725
3.6252,-291.698,3.20722
3.8277,-290.365,3.17102
4.0272,-289.03,3.14555
4.2275,-287.697,3.11482
4.4292,-286.364,3.09723
4.6291,-285.031,3.06932
4.8292,-283.698,3.05234
5.0313,-282.33,3.04243
5.2326,-280.998,3.03657
5.4349,-279.665,3.02505
5.6366,-278.297,3.01473
5.8381,-276.964,3.01008
6.04,-275.631,3.01797
6.2416,-274.262,3.02019
6.4419,-272.963,3.0212
6.6414,-271.596,3.04446
6.8419,-270.263,3.06427
7.0418,-268.964,3.10309
7.2418,-267.594,3.13706
7.4425,-266.261,3.17345
7.6431,-265.639,3.18578
7.843,-265.639,3.18538
8.0433,-265.639,3.19003
8.2436,-265.639,3.18619
8.4435,-265.64,3.18922
8.6439,-265.64,3.18336
8.8438,-265.64,3.19064
9.0442,-265.64,3.18194
9.2447,-265.64,3.18295
9.4442,-265.64,3.18356
9.6443,-265.64,3.18255
9.8448,-265.64,3.18497
10.045,-265.64,3.17931
10.2446,-265.64,3.18538
10.4453,-265.64,3.17749
10.6461,-265.64,3.1779
10.8464,-265.64,3.18316
11.0474,-265.64,3.18053
11.2483,-265.64,3.18417
11.4492,-265.64,3.18578
11.6493,-265.64,3.17952
11.8499,-265.64,3.18275
12.0502,-265.64,3.17911
12.2509,-265.64,3.18174
12.4519,-265.64,3.17749
12.6514,-265.64,3.17709
12.8529,-265.64,3.16941
13.0539,-265.64,3.17345
13.2538,-265.64,3.17507
13.4552,-265.64,3.17871
13.6559,-265.64,3.1781
13.856,-265.64,3.17426
14.0557,-265.64,3.17507
14.256,-265.64,3.17527
14.4555,-265.64,3.1779
14.6553,-265.64,3.18639
14.8573,-265.64,3.18073
15.0573,-265.64,3.17931
15.2582,-265.64,3.18134
15.4576,-265.64,3.17891
15.6574,-265.64,3.18134
15.8577,-265.64,3.18356
16.0577,-265.64,3.18275
16.258,-265.768,3.15182
16.4778,-266.864,3.14838
16.6794,-268.197,3.1041
16.8793,-269.533,3.06285
17.0809,-270.866,3.02929
17.2817,-272.201,3.00179
17.4832,-273.534,2.99714
17.6826,-274.869,2.99128
17.8832,-276.237,2.98744
18.0829,-277.57,2.97915
18.2832,-278.902,2.9836
18.4842,-280.236,2.98137
18.6848,-281.569,2.97955
18.8845,-282.902,2.98218
19.0849,-284.235,2.98016
19.2862,-285.568,2.96864
19.4862,-286.903,2.96884
19.6854,-288.236,2.97025
19.8857,-289.569,2.96661
20.0868,-290.902,2.95934
20.2868,-292.235,2.95266
20.4882,-293.602,2.92496
20.688,-294.935,2.90697
20.8874,-296.234,2.85743
21.0882,-297.569,2.81376
21.289,-298.937,2.75351
21.4895,-300.27,2.6597
21.6921,-301.603,2.55557
21.8913,-302.936,2.46135
22.0917,-304.271,2.31921
22.2913,-305.607,2.16393
22.4917,-306.94,1.98075
22.6914,-308.273,1.7632
22.8915,-309.606,1.50177
23.0916,-310.939,1.19829
23.2916,-312.272,0.827888
23.4918,-312.955,0.384696
23.6917,-314.94,-0.150491
23.8915,-315.641,-1.46854
24.0923,-315.641,-1.13413
24.2922,-315.64,-1.02434
24.4917,-315.64,-0.959843
24.6914,-315.64,-0.916575
24.8936,-315.64,-0.881799
25.0938,-315.64,-0.852684
25.2935,-315.64,-0.82822
25.4953,-315.64,-0.805575
25.6948,-315.64,-0.792028
25.8957,-315.64,-0.783334
26.0957,-315.64,-0.768575
26.2974,-315.64,-0.756241
26.5002,-315.64,-0.739056
26.6997,-315.64,-0.735012
26.9014,-315.64,-0.722678
27.1012,-315.64,-0.719848
27.3015,-315.64,-0.709334
27.5017,-315.64,-0.701449
27.7024,-315.64,-0.695383
27.9051,-315.64,-0.684465
28.1062,-315.64,-0.683656
28.3057,-315.64,-0.672738
28.5054,-315.64,-0.672738
28.7058,-315.64,-0.665258
28.9068,-315.64,-0.663236
29.1087,-315.64,-0.657777
29.3081,-315.64,-0.656766
29.5089,-315.64,-0.648678
29.7084,-315.64,-0.643017
29.9084,-315.64,-0.633312
30.1103,-315.64,-0.632908
30.3124,-315.64,-0.627449
30.5141,-315.64,-0.618148
30.7137,-315.64,-0.624416
30.9151,-315.64,-0.621383
31.1148,-315.64,-0.613296
31.3157,-315.64,-0.614104
31.5156,-315.64,-0.60905
31.7163,-315.64,-0.610263
31.9162,-315.64,-0.605208
32.1155,-315.64,-0.59793
32.3162,-315.64,-0.598132
32.5155,-315.64,-0.598536
32.7173,-315.64,-0.596919
32.9173,-315.64,-0.58782
33.1165,-315.64,-0.58782
33.3185,-315.64,-0.583574
33.5202,-315.64,-0.577509
33.7198,-315.64,-0.577307
33.92,-315.64,-0.573667
34.1212,-315.64,-0.572454
34.3205,-315.64,-0.56558
34.5216,-315.64,-0.567399
34.7216,-315.64,-0.561334
34.9216,-315.64,-0.562749
35.1225,-315.64,-0.559514
35.3236,-315.64,-0.55911
35.5242,-315.64,-0.556886
35.7237,-315.64,-0.556279
35.9253,-315.64,-0.548596
36.1263,-315.64,-0.55082
36.3277,-315.64,-0.54799
36.5291,-315.64,-0.541115
36.7298,-315.64,-0.542935
36.9315,-315.64,-0.543137
37.1328,-315.64,-0.539093
37.3333,-315.64,-0.536667
37.5332,-315.64,-0.539498
37.7343,-315.64,-0.535858
37.9341,-315.64,-0.535656
38.1336,-315.64,-0.532421
38.3355,-315.64,-0.527164
38.5371,-315.64,-0.529186
38.7372,-315.64,-0.525749
38.9378,-315.64,-0.534039
39.1379,-315.64,-0.528175
39.3387,-315.64,-0.521301
39.5402,-315.64,-0.519886
39.7398,-315.64,-0.518673
39.9395,-315.64,-0.520492
40.14,-315.64,-0.515438
40.3412,-315.64,-0.515033
40.5413,-315.64,-0.511798
40.7422,-315.64,-0.517459
40.9416,-315.64,-0.508968
41.1419,-315.64,-0.506946
41.3423,-315.64,-0.508765
41.5423,-315.64,-0.508765
41.7415,-315.64,-0.509979
41.9422,-315.64,-0.505935
42.142,-315.64,-0.507148
42.3416,-315.64,-0.504519
42.5418,-315.64,-0.503104
42.7429,-315.64,-0.500678
42.9435,-315.64,-0.502093
43.1443,-315.64,-0.494612
43.345,-315.64,-0.499263
43.5447,-315.64,-0.496634
43.7458,-315.64,-0.497847
43.9463,-315.64,-0.49158
44.1478,-315.64,-0.500071
44.3469,-315.64,-0.49158
44.5478,-315.64,-0.491175
44.7475,-315.64,-0.485312
44.9479,-315.64,-0.489153
45.1476,-315.64,-0.490366
45.3489,-315.64,-0.479448
45.5498,-315.64,-0.481268
45.7498,-315.64,-0.48329
45.9497,-315.64,-0.478235
46.1499,-315.64,-0.48147
46.3502,-315.64,-0.480257
46.5503,-315.64,-0.481875
46.7502,-315.64,-0.476416
46.9497,-315.64,-0.473787
47.1504,-315.64,-0.473181
47.3508,-315.64,-0.479246
47.5524,-315.64,-0.477629
47.7519,-315.64,-0.474798
47.9523,-315.64,-0.473787
48.152,-315.64,-0.472574
48.3532,-315.64,-0.476011
48.5549,-315.64,-0.469946
48.7547,-315.64,-0.469339
48.9557,-315.64,-0.463678
49.1576,-315.64,-0.468328
49.3584,-315.64,-0.470552
49.5579,-315.64,-0.4657
49.7595,-315.64,-0.465093
49.9598,-315.64,-0.467519
50.1602,-315.64,-0.465093
50.3603,-315.64,-0.461656
50.5614,-315.64,-0.462465
50.7611,-315.64,-0.464891
50.9624,-315.64,-0.46206
51.1643,-315.64,-0.463273
51.3655,-315.64,-0.457814
51.5665,-315.64,-0.458017
51.766,-315.64,-0.462667
51.9675,-315.64,-0.456399
52.1679,-315.64,-0.457612
52.3704,-315.64,-0.458421
52.5707,-315.64,-0.458623
52.7726,-315.64,-0.458219
52.9716,-315.64,-0.454782
53.1722,-315.64,-0.449525
53.3738,-315.64,-0.451547
53.5747,-315.64,-0.45276
53.7748,-315.64,-0.453771
53.9751,-315.64,-0.446694
54.1754,-315.64,-0.453569
54.375,-315.64,-0.451142
54.5751,-315.64,-0.451142
54.7748,-315.64,-0.453771
54.9756,-315.64,-0.447503
55.176,-315.64,-0.442853
55.3765,-315.64,-0.440022
55.5766,-315.64,-0.441842
55.7765,-315.64,-0.439213
55.9756,-315.64,-0.44164
56.1765,-315.64,-0.436787
56.3774,-315.64,-0.437191
56.5786,-315.64,-0.432137
56.7779,-315.64,-0.434361
56.9792,-315.64,-0.428497
57.1805,-315.64,-0.434967
57.3806,-315.64,-0.434159
57.5798,-315.64,-0.435776
57.7797,-315.64,-0.43153
57.981,-315.64,-0.435978
58.1825,-315.64,-0.430519
58.382,-315.64,-0.43153
58.5825,-315.64,-0.429913
58.7827,-315.64,-0.427284
58.9844,-315.64,-0.430924
59.1849,-315.64,-0.42506
59.3866,-315.64,-0.430721
59.5874,-315.64,-0.427284
59.7879,-315.64,-0.424858
59.9891,-315.64,-0.424858
60.1897,-315.64,-0.427891
60.3903,-315.64,-0.426476
60.5898,-315.64,-0.423645
60.7901,-315.64,-0.419601
60.9902,-315.64,-0.423847
61.1904,-315.64,-0.424049
61.3904,-315.64,-0.422432
61.5904,-315.64,-0.423847
61.7913,-315.64,-0.420612
61.9915,-315.64,-0.420208
62.1926,-315.64,-0.417984
62.3936,-315.64,-0.416973
62.5935,-315.64,-0.421219
62.7932,-315.64,-0.417782
62.9941,-315.64,-0.41394
63.1946,-315.64,-0.418186
63.3955,-315.64,-0.415962
63.5956,-315.64,-0.41576
63.7956,-315.64,-0.416164
63.9957,-315.64,-0.414951
64.1958,-315.64,-0.419803
64.3973,-315.64,-0.417579
64.5978,-315.64,-0.417984
64.7994,-315.64,-0.414547
64.9998,-315.64,-0.409694
65.2016,-315.64,-0.412323
65.401,-315.64,-0.409492
65.6026,-315.64,-0.414142
65.8019,-315.64,-0.413738
66.0037,-315.64,-0.40565
66.2034,-315.64,-0.401
66.4042,-315.64,-0.403629
66.6038,-315.64,-0.408683
66.8055,-315.64,-0.410099
67.0064,-315.64,-0.40282
67.2059,-315.64,-0.404842
67.4062,-315.64,-0.404033
67.6063,-315.64,-0.398574
67.8076,-315.64,-0.404639
68.0081,-315.64,-0.405246
68.2081,-315.64,-0.403831
68.4086,-315.64,-0.405448
68.6078,-315.64,-0.398776
68.8082,-315.64,-0.401809
69.008,-315.64,-0.402618
69.2081,-315.64,-0.400394
69.4081,-315.64,-0.396552
69.6097,-315.64,-0.394732
69.8095,-315.64,-0.397563
70.0102,-315.64,-0.398776
70.2105,-315.64,-0.39918
70.4106,-315.64,-0.398574
70.6115,-315.64,-0.399989
70.8116,-315.64,-0.39271
71.0116,-315.64,-0.397765
71.2128,-315.64,-0.399989
71.412,-315.64,-0.395945
71.6126,-315.64,-0.394732
71.8124,-315.64,-0.392913
72.0141,-315.64,-0.393519
72.2138,-315.64,-0.39453
72.4146,-315.64,-0.398978
72.615,-315.64,-0.394328
72.8166,-315.64,-0.394328
73.016,-315.64,-0.392913
73.2186,-315.64,-0.394126
73.4181,-315.64,-0.393115
73.6207,-315.64,-0.393317
73.8201,-315.64,-0.393721
74.0217,-315.64,-0.390284
74.2228,-315.64,-0.391295
74.4237,-315.64,-0.394126
74.6231,-315.64,-0.393317
74.824,-315.64,-0.389273
75.0247,-315.64,-0.396956
75.2248,-315.64,-0.393721
75.4256,-315.64,-0.390284
75.625,-315.64,-0.387251
75.8258,-315.64,-0.391497
76.0263,-315.64,-0.388465
76.2268,-315.64,-0.386241
76.4264,-315.64,-0.387858
76.626,-315.64,-0.383814
76.8274,-315.64,-0.387251
77.027,-315.64,-0.389273
77.2277,-315.64,-0.383208
77.4277,-315.64,-0.385027
77.6279,-315.64,-0.381388
77.8297,-315.64,-0.379973
78.0296,-315.64,-0.381186
78.2292,-315.64,-0.380377
78.4304,-315.64,-0.38523
78.6304,-315.64,-0.373503
78.8299,-315.64,-0.379366
79.0306,-315.64,-0.377951
79.2309,-315.64,-0.38159
79.4322,-315.64,-0.374109
79.6319,-315.64,-0.374514
79.8338,-315.64,-0.373907
80.0348,-315.64,-0.371077
80.2345,-315.64,-0.373705
80.4349,-315.64,-0.375727
80.6349,-315.64,-0.368044
80.836,-315.64,-0.37512
81.0386,-315.64,-0.368448
81.2406,-315.64,-0.369055
81.4406,-315.64,-0.372492
81.6403,-315.64,-0.364607
81.8417,-315.64,-0.369863
82.0424,-315.64,-0.371683
82.2426,-315.64,-0.368044
82.4436,-315.64,-0.368853
82.6448,-315.64,-0.372087
82.844,-315.64,-0.367842
83.0444,-315.64,-0.37229
83.2459,-315.64,-0.371077
83.4459,-315.64,-0.365415
83.6451,-315.64,-0.36582
83.846,-315.64,-0.367842
84.0468,-315.64,-0.360967
84.2464,-315.64,-0.366831
84.4459,-315.64,-0.365618
84.6476,-315.64,-0.369055
84.8478,-315.64,-0.367639
85.0478,-315.64,-0.365213
85.2472,-315.64,-0.364404
85.4478,-315.64,-0.361776
85.6487,-315.64,-0.362989
85.8487,-315.64,-0.361574
86.0482,-315.64,-0.364809
86.248,-315.64,-0.362585
86.4499,-315.64,-0.361169
86.6506,-315.64,-0.360765
86.8519,-315.64,-0.362989
87.0512,-315.64,-0.359552
87.2516,-315.64,-0.358945
87.4514,-315.64,-0.359956
87.6521,-315.64,-0.360158
87.8535,-315.64,-0.359552
88.053,-315.64,-0.355913
88.2538,-315.64,-0.35935
88.454,-315.64,-0.357732
88.6557,-315.64,-0.353082
88.8563,-315.64,-0.354497
89.0563,-315.64,-0.355508
89.2563,-315.64,-0.354902
89.4565,-315.64,-0.358137
89.6573,-315.64,-0.354497
89.8583,-315.64,-0.35288
90.0583,-315.64,-0.351667
90.2581,-315.64,-0.352071
90.4583,-315.64,-0.352678
90.6583,-315.64,-0.356721
90.8598,-315.64,-0.355104
91.0597,-315.64,-0.35106
91.2599,-315.64,-0.35753
91.4593,-315.64,-0.350858
91.6604,-315.64,-0.354497
91.8606,-315.64,-0.350858
92.0603,-315.64,-0.351262
92.2608,-315.64,-0.354295
92.4614,-315.64,-0.353284
92.6625,-315.64,-0.350858
92.8623,-315.64,-0.34641
93.065,-315.64,-0.347421
93.2654,-315.64,-0.346208
93.4657,-315.64,-0.347219
93.6652,-315.64,-0.347825
93.8668,-315.64,-0.347623
94.0671,-315.64,-0.347016
94.2681,-315.64,-0.347825
94.4698,-315.64,-0.345803
94.6717,-315.64,-0.347219
94.872,-315.64,-0.34823
95.0729,-315.64,-0.344388
95.2722,-315.64,-0.341557
95.472,-315.64,-0.351464
95.6741,-315.64,-0.347825
95.8754,-315.64,-0.344995
96.0778,-315.64,-0.34641
96.2784,-315.64,-0.347016
96.4798,-315.64,-0.345803
96.6794,-315.64,-0.340142
96.8799,-315.64,-0.34176
97.0807,-315.64,-0.343579
97.2803,-315.64,-0.340344
97.4804,-315.64,-0.345197
97.6807,-315.64,-0.341557
97.8807,-315.64,-0.33994
98.0808,-315.64,-0.340142
98.2805,-315.64,-0.339333
98.4806,-315.64,-0.337109
98.6811,-315.64,-0.33994
98.8811,-315.64,-0.33812
99.0813,-315.64,-0.337514
99.282,-315.64,-0.341355
99.4811,-315.64,-0.334885
99.6817,-315.64,-0.333874
99.884,-315.64,-0.338525
100.0859,-315.64,-0.339131
100.2843,-315.64,-0.332863
100.4855,-315.64,-0.337311
100.6859,-315.64,-0.341962
100.8859,-315.64,-0.339131
101.0881,-315.64,-0.335896
101.289,-315.64,-0.341557
101.4881,-315.64,-0.336705
101.689,-315.64,-0.333268
101.8888,-315.64,-0.332055
102.0899,-315.64,-0.334481
102.2911,-315.64,-0.334481
102.4918,-315.64,-0.33347
102.6925,-315.64,-0.335087
102.8936,-315.64,-0.335087
103.094,-315.64,-0.329628
103.2948,-315.64,-0.324776
103.4947,-315.64,-0.327809
103.6959,-315.64,-0.333874
103.896,-315.64,-0.330033
104.0969,-315.64,-0.326798
104.2967,-315.64,-0.335896
104.497,-315.64,-0.338525
104.6967,-315.64,-0.334683
104.8967,-315.64,-0.334279
105.0962,-315.64,-0.329628
105.2975,-315.64,-0.32882
105.4985,-315.64,-0.33529
105.6983,-315.64,-0.332055
105.8989,-315.64,-0.329628
106.0985,-315.64,-0.329022
106.3001,-315.64,-0.32882
106.5006,-315.64,-0.332661
106.7022,-315.64,-0.334279
106.9028,-315.64,-0.330235
107.103,-315.64,-0.327607
107.3043,-315.64,-0.324372
107.5042,-315.64,-0.328617
107.7053,-315.64,-0.324372
107.9054,-315.64,-0.332863
108.106,-315.64,-0.328415
108.3056,-315.64,-0.330437
108.5059,-315.64,-0.332257
108.707,-315.64,-0.325382
108.9076,-315.64,-0.32882
109.1085,-315.64,-0.32518
109.3081,-315.64,-0.325382
109.509,-315.64,-0.323765
109.7082,-315.64,-0.329022
109.9095,-315.64,-0.330437
110.1092,-315.64,-0.327607
110.3095,-315.64,-0.326798
110.5102,-315.64,-0.332055
110.7108,-315.64,-0.330437
110.9115,-315.64,-0.326798
111.1119,-315.64,-0.326191
111.3118,-315.64,-0.321541
111.5115,-315.64,-0.322956
111.7115,-315.64,-0.323158
111.9127,-315.64,-0.318306
112.1129,-315.64,-0.321541
112.3126,-315.64,-0.321339
112.513,-315.64,-0.322147
112.7135,-315.64,-0.322552
112.9147,-315.64,-0.321137
113.1145,-315.64,-0.32882
113.3147,-315.64,-0.325382
113.5149,-315.64,-0.324372
113.7159,-315.64,-0.324776
113.9165,-315.64,-0.324776
114.118,-315.64,-0.323563
114.3191,-315.64,-0.319923
114.5185,-315.64,-0.322552
114.7205,-315.64,-0.323967
114.9207,-315.64,-0.326393
115.122,-315.64,-0.322552
115.3225,-315.64,-0.320732
115.5236,-315.64,-0.319115
115.7243,-315.64,-0.317902
115.9257,-315.64,-0.317902
116.1269,-315.64,-0.321339
116.3265,-315.64,-0.323158
116.5269,-315.64,-0.319317
116.7267,-315.64,-0.320732
116.928,-315.64,-0.319923
117.1272,-315.64,-0.317699
117.3292,-315.64,-0.319721
117.5296,-315.64,-0.316486
117.731,-315.64,-0.316486
117.9308,-315.64,-0.317295
118.131,-315.64,-0.31588
118.3306,-315.64,-0.318508
118.531,-315.64,-0.314262
118.7308,-315.64,-0.316688
118.9308,-315.64,-0.307994
119.1309,-315.64,-0.313049
119.3306,-315.64,-0.311836
119.5307,-315.64,-0.313858
119.7307,-315.64,-0.310016
119.9322,-315.64,-0.312645
120.1322,-315.64,-0.313453
120.3314,-315.64,-0.308399
120.5314,-315.64,-0.315678
120.7313,-315.64,-0.313656
120.9324,-315.64,-0.307994
121.1328,-315.64,-0.310825
121.3341,-315.64,-0.307994
121.5341,-315.64,-0.310218
121.7336,-315.64,-0.312645
121.935,-315.64,-0.30577
122.1353,-315.64,-0.309005
122.3369,-315.64,-0.302738
122.5391,-315.64,-0.305366
122.7401,-315.64,-0.309005
122.9401,-315.64,-0.309005
123.1411,-315.64,-0.305568
123.3405,-315.64,-0.311229
123.5439,-315.64,-0.307994
123.7437,-315.64,-0.311836
123.946,-315.64,-0.307792
124.1468,-315.64,-0.305973
124.3463,-315.64,-0.308803
124.5478,-315.64,-0.306984
124.7478,-315.64,-0.306377
124.9475,-315.64,-0.305568
125.1487,-315.64,-0.308601
125.3508,-315.64,-0.307792
125.5503,-315.64,-0.304153
125.7509,-315.64,-0.307994
125.9503,-315.64,-0.304759
126.151,-315.64,-0.305164
126.3521,-315.64,-0.297279
126.5523,-315.64,-0.305164
126.7541,-315.64,-0.304962
126.9536,-315.64,-0.309005
127.1535,-315.64,-0.307994
127.3551,-315.64,-0.310825
127.5555,-315.64,-0.303142
127.7559,-315.64,-0.306377
127.9556,-315.64,-0.30577
128.1567,-315.64,-0.301524
128.3569,-315.64,-0.299705
128.5583,-315.64,-0.300311
128.7585,-315.64,-0.298694
128.9589,-315.64,-0.297885
129.1587,-315.64,-0.303749
129.3601,-315.64,-0.299098
129.5605,-315.64,-0.302535
129.7605,-315.64,-0.304153
129.9605,-315.64,-0.305568
130.1609,-315.64,-0.304759
130.3625,-315.64,-0.298694
130.5629,-315.64,-0.302738
130.7647,-315.64,-0.302333
130.9663,-315.64,-0.300716
131.1672,-315.64,-0.30294
131.3674,-315.64,-0.296672
131.5691,-315.64,-0.295459
131.7687,-315.64,-0.300311
131.9692,-315.64,-0.298694
132.1698,-315.64,-0.297885
132.3713,-315.64,-0.290202
132.571,-315.64,-0.30294
132.7731,-315.64,-0.298492
132.9725,-315.64,-0.296065
133.1725,-315.64,-0.291415
133.375,-315.64,-0.293841
133.5756,-315.64,-0.286765
133.7761,-315.64,-0.293639
133.9757,-315.64,-0.289798
134.1771,-315.64,-0.291213
134.3768,-315.64,-0.294852
134.5775,-315.64,-0.291617
134.7783,-315.64,-0.294246
134.9787,-315.64,-0.290606
135.1802,-315.64,-0.289798
135.381,-315.64,-0.292224
135.5809,-315.64,-0.290202
135.7811,-315.64,-0.299705
135.981,-315.64,-0.290809
136.1812,-315.64,-0.292426
136.3809,-315.64,-0.297481
136.5808,-315.64,-0.293033
136.781,-315.64,-0.29465
136.9809,-315.64,-0.295459
137.1824,-315.64,-0.293841
137.3842,-315.64,-0.292224
137.5836,-315.64,-0.289393
137.786,-315.64,-0.293841
137.9863,-315.64,-0.291415
138.1864,-315.64,-0.290404
138.3858,-315.64,-0.287371
138.5864,-315.64,-0.286563
138.7887,-315.64,-0.290606
138.9887,-315.64,-0.292628
139.1888,-315.64,-0.29283
139.3884,-315.64,-0.290404
139.5889,-315.64,-0.293437
139.7905,-315.64,-0.288787
139.9916,-315.64,-0.291213
140.1924,-315.64,-0.287776
140.3934,-315.64,-0.291617
140.5926,-315.64,-0.290606
140.7929,-315.64,-0.289393
140.9952,-315.64,-0.292224
141.1953,-315.64,-0.292426
141.397,-315.64,-0.294852
141.597,-315.64,-0.288585
141.797,-315.64,-0.294852
141.9972,-315.64,-0.288585
142.1967,-315.64,-0.29
142.3992,-315.64,-0.287776
142.5988,-315.64,-0.290404
142.7987,-315.64,-0.288989
143.0012,-315.64,-0.290202
143.2008,-315.64,-0.291415
143.4012,-315.64,-0.293033
143.6018,-315.64,-0.288585
143.8016,-315.64,-0.288989
144.0041,-315.64,-0.288787
144.204,-315.64,-0.290202
144.4043,-315.64,-0.29465
144.6046,-315.64,-0.286765
144.8066,-315.64,-0.28818
145.0074,-315.64,-0.287978
145.2074,-315.64,-0.288585
145.4066,-315.64,-0.285956
145.6072,-315.64,-0.286967
145.807,-315.64,-0.287574
146.0083,-315.64,-0.286563
146.2094,-315.64,-0.285754
146.4094,-315.64,-0.291617
146.6113,-315.64,-0.284945
146.8124,-315.64,-0.284743
147.0122,-315.64,-0.280093
147.2125,-315.64,-0.284136
147.4123,-315.64,-0.283732
147.613,-315.64,-0.28818
147.8132,-315.64,-0.290202
148.0132,-315.64,-0.288382
148.2141,-315.64,-0.289798
148.4151,-315.64,-0.291011
148.6147,-315.64,-0.293033
148.8162,-315.64,-0.287371
149.017,-315.64,-0.282317
149.217,-315.64,-0.286563
149.417,-315.64,-0.284743
149.6183,-315.64,-0.282923
149.818,-315.64,-0.282923
150.0187,-315.64,-0.28353
150.2203,-315.64,-0.287776
150.4202,-315.64,-0.281104
150.6209,-315.64,-0.285956
150.8213,-315.64,-0.283126
151.0222,-315.64,-0.282317
151.222,-315.64,-0.279891
151.4222,-315.64,-0.282721
151.6227,-315.64,-0.28171
151.8232,-315.64,-0.283732
152.0239,-315.64,-0.28171
152.2241,-315.64,-0.286967
152.4244,-315.64,-0.282923
152.6252,-315.64,-0.281912
152.8251,-315.64,-0.278273
153.025,-315.64,-0.278475
153.2265,-315.64,-0.278475
153.4268,-315.64,-0.273825
153.6288,-315.64,-0.274432
153.8297,-315.64,-0.279082
154.0305,-315.64,-0.27524
154.2302,-315.64,-0.276858
154.4306,-315.64,-0.275442
154.6319,-315.64,-0.279486
154.8316,-315.64,-0.277262
155.0328,-315.64,-0.278677
155.234,-315.64,-0.281306
155.4353,-315.64,-0.277464
155.6364,-315.64,-0.280901
155.836,-315.64,-0.278677
156.0364,-315.64,-0.280295
156.2359,-315.64,-0.276049
156.4356,-315.64,-0.27524
156.6384,-315.64,-0.273421
156.8389,-315.64,-0.278071
157.0394,-315.64,-0.274634
157.2387,-315.64,-0.27524
157.4403,-315.64,-0.276858
157.6399,-315.64,-0.274634
157.8397,-315.64,-0.274836
158.0414,-315.64,-0.273825
158.2409,-315.64,-0.269983
158.4421,-315.64,-0.270792
158.6416,-315.64,-0.275442
158.8432,-315.64,-0.271197
159.0435,-315.64,-0.274836
159.2445,-315.64,-0.273218
159.4454,-315.64,-0.276453
159.6457,-315.64,-0.27706
159.8461,-315.64,-0.274432
160.0474,-315.64,-0.270792
160.2472,-315.64,-0.272005
160.4475,-315.64,-0.274432
160.6477,-315.64,-0.27241
160.848,-315.64,-0.274027
161.0479,-315.64,-0.278071
161.2484,-315.64,-0.276251
161.4514,-315.64,-0.270994
161.6523,-315.64,-0.272612
161.8527,-315.64,-0.265738
162.0534,-315.64,-0.269377
162.2537,-315.64,-0.270388
162.4556,-315.64,-0.268366
162.655,-315.64,-0.270186
162.8574,-315.64,-0.271803
163.0584,-315.64,-0.27706
163.2592,-315.64,-0.269175
163.4593,-315.64,-0.268164
163.6589,-315.64,-0.268366
163.8602,-315.64,-0.267759
164.0598,-315.64,-0.268164
164.2601,-315.64,-0.266748
164.4609,-315.64,-0.268164
164.6634,-315.64,-0.27241
164.8629,-315.64,-0.27059
165.0632,-315.64,-0.268973
165.263,-315.64,-0.267759
165.4627,-315.64,-0.269781
165.6631,-315.64,-0.269983
165.8639,-315.64,-0.272207
166.0654,-315.64,-0.268366
166.2659,-315.64,-0.264929
166.4677,-315.64,-0.262098
166.6677,-315.64,-0.26412
166.8679,-315.64,-0.265738
167.0678,-315.64,-0.265738
167.2697,-315.64,-0.26412
167.4712,-315.64,-0.261492
167.6714,-315.64,-0.266748
167.8712,-315.64,-0.263513
168.071,-315.64,-0.27059
168.2714,-315.64,-0.267355
168.472,-315.64,-0.265333
168.6725,-315.64,-0.269377
168.8723,-315.64,-0.263311
169.0724,-315.64,-0.265131
169.2728,-315.64,-0.26412
169.4728,-315.64,-0.260076
169.6742,-315.64,-0.265535
169.8738,-315.64,-0.263918
170.0753,-315.64,-0.263513
170.2767,-315.64,-0.262705
170.4766,-315.64,-0.261289
170.6777,-315.64,-0.26412
170.8783,-315.64,-0.258863
171.079,-315.64,-0.263311
171.2804,-315.64,-0.264524
171.4798,-315.64,-0.267153
171.6816,-315.64,-0.261492
171.8809,-315.64,-0.264322
172.0817,-315.64,-0.26594
172.2815,-315.64,-0.264524
172.4825,-315.64,-0.265738
172.6835,-315.64,-0.264727
172.8843,-315.64,-0.261694
173.0844,-315.64,-0.260076
173.2839,-315.64,-0.261087
173.4844,-315.64,-0.258863
173.6846,-315.64,-0.262503
173.8841,-315.64,-0.260076
174.0842,-315.64,-0.267759
174.2857,-315.64,-0.263716
174.4859,-315.64,-0.260076
174.6868,-315.64,-0.262907
174.8873,-315.64,-0.264322
175.088,-315.64,-0.264322
175.288,-315.64,-0.263716
175.4902,-315.64,-0.263716
175.6902,-315.64,-0.262907
175.8917,-315.64,-0.261289
176.0934,-315.64,-0.263716
176.2947,-315.64,-0.264929
176.4951,-315.64,-0.261492
176.6949,-315.64,-0.262907
176.8967,-315.64,-0.263513
177.0977,-315.64,-0.261492
177.298,-315.64,-0.259672
177.498,-315.64,-0.263311
177.6995,-315.64,-0.258054
177.9005,-315.64,-0.263513
178.1036,-315.64,-0.256033
178.3043,-315.64,-0.260076
178.5039,-315.64,-0.261087
178.7041,-315.64,-0.257448
178.9043,-315.64,-0.257044
179.1044,-315.64,-0.255224
179.305,-315.64,-0.256437
179.5062,-315.64,-0.256033
179.7066,-315.64,-0.258459
179.9063,-315.64,-0.256639
180.1077,-315.64,-0.25583
180.3084,-315.64,-0.262098
180.5079,-315.64,-0.256235
180.7096,-315.64,-0.254213
180.9108,-315.64,-0.261896
181.1098,-315.64,-0.254011
181.3118,-315.64,-0.257852
181.511,-315.64,-0.256639
181.712,-315.64,-0.261087
181.9133,-315.64,-0.261289
182.1132,-315.64,-0.255022
182.3131,-315.64,-0.258863
182.5146,-315.64,-0.25947
182.7141,-315.64,-0.255628
182.9165,-315.64,-0.261896
183.1161,-315.64,-0.262503
183.3176,-315.64,-0.255426
183.5181,-315.64,-0.25765
183.7186,-315.64,-0.255628
183.9181,-315.64,-0.257448
184.1194,-315.64,-0.250169
184.3199,-315.64,-0.256235
184.5205,-315.64,-0.254819
184.7212,-315.64,-0.254819
184.9214,-315.64,-0.256639
185.1226,-315.64,-0.256033
185.3235,-315.64,-0.257044
185.523,-315.64,-0.252393
185.724,-315.64,-0.251584
185.9254,-315.64,-0.250978
186.1261,-315.64,-0.24936
186.3261,-315.64,-0.244912
186.5272,-315.64,-0.249563
186.7284,-315.64,-0.251787
186.9298,-315.64,-0.251584
187.1292,-315.64,-0.251989
187.3294,-315.64,-0.24936
187.5315,-315.64,-0.250371
187.7322,-315.64,-0.248552
187.9334,-315.64,-0.251787
188.1329,-315.64,-0.24835
188.333,-315.64,-0.246732
188.5343,-315.64,-0.247743
188.7342,-315.64,-0.250776
188.9356,-315.64,-0.250169
189.1374,-315.64,-0.251382
189.3391,-315.64,-0.248147
189.5391,-315.64,-0.250574
189.7393,-315.64,-0.249967
189.9394,-315.64,-0.248552
190.1391,-315.64,-0.247339
190.3398,-315.64,-0.245923
190.5391,-315.64,-0.243497
190.7394,-315.64,-0.243497
190.9402,-315.64,-0.242284
191.1427,-315.64,-0.244912
191.3435,-315.64,-0.245115
191.5433,-315.64,-0.246732
191.7447,-315.64,-0.246125
191.945,-315.64,-0.247945
192.146,-315.64,-0.24835
192.3461,-315.64,-0.24936
192.5472,-315.64,-0.24653
192.7471,-315.64,-0.249765
192.9489,-315.64,-0.247339
193.149,-315.64,-0.248147
193.3503,-315.64,-0.249158
193.5528,-315.64,-0.249563
193.7532,-315.64,-0.248147
193.9544,-315.64,-0.250371
194.1545,-315.64,-0.249158
194.3552,-315.64,-0.24471
194.5565,-315.64,-0.245721
194.7577,-315.64,-0.248754
194.9582,-315.64,-0.248956
195.1596,-315.64,-0.250978
195.3602,-315.64,-0.24653
195.561,-315.64,-0.242284
195.7623,-315.64,-0.240262
195.9625,-315.64,-0.245115
196.1639,-315.64,-0.24653
196.3659,-315.64,-0.241475
196.5653,-315.64,-0.242082
196.7677,-315.64,-0.247945
196.9681,-315.64,-0.248552
197.1692,-315.64,-0.242284
197.371,-315.64,-0.247136
197.571,-315.64,-0.243295
197.7715,-315.64,-0.247541
197.974,-315.64,-0.242284
198.1756,-315.64,-0.243295
198.3777,-315.64,-0.243295
198.5799,-315.64,-0.247136
198.7794,-315.64,-0.241677
198.9808,-315.64,-0.241071
199.1814,-315.64,-0.238442
199.3829,-315.64,-0.240464
199.582,-315.64,-0.244508
199.7836,-315.64,-0.244306
199.9854,-315.64,-0.244508
200.1862,-315.64,-0.240262
200.3885,-315.64,-0.243497
200.5884,-315.64,-0.243497
200.7881,-315.64,-0.243497
200.9889,-315.64,-0.242082
201.1893,-315.64,-0.243901
201.3894,-315.64,-0.239251
201.5898,-315.64,-0.244306
201.791,-315.64,-0.242486
201.9911,-315.64,-0.239453
202.1928,-315.64,-0.240869
202.3937,-315.64,-0.239453
202.5937,-315.64,-0.237229
202.7931,-315.64,-0.239858
202.9939,-315.64,-0.239453
203.196,-315.64,-0.244508
203.3953,-315.64,-0.241475
203.5968,-315.64,-0.240869
203.7977,-315.64,-0.239453
203.9985,-315.64,-0.242082
204.198,-315.64,-0.237836
204.3998,-315.64,-0.245519
204.5993,-315.64,-0.237634
204.7998,-315.64,-0.243295
204.9992,-315.64,-0.24289
205.1994,-315.64,-0.245923
205.3992,-315.64,-0.243901
205.5994,-315.64,-0.242284
205.7997,-315.64,-0.243093
205.9994,-315.64,-0.244104
206.1994,-315.64,-0.242082
206.3995,-315.64,-0.245115
206.5991,-315.64,-0.240666
206.8,-315.64,-0.239858
206.9991,-315.64,-0.240869
207.2008,-315.64,-0.236825
207.4007,-315.64,-0.244912
207.6018,-315.64,-0.241475
207.8016,-315.64,-0.244104
208.0028,-315.64,-0.236421
208.2037,-315.64,-0.236016
208.4058,-315.64,-0.234399
208.6068,-315.64,-0.241071
208.8072,-315.64,-0.237634
209.0089,-315.64,-0.245317
209.2094,-315.64,-0.241475
209.4107,-315.64,-0.242082
209.611,-315.64,-0.240262
209.8116,-315.64,-0.242688
210.0117,-315.64,-0.239858
210.212,-315.64,-0.237431
210.4131,-315.64,-0.239656
210.613,-315.64,-0.237229
210.8146,-315.64,-0.239656
211.0146,-315.64,-0.245721
211.2163,-315.64,-0.24006
211.4167,-315.64,-0.237027
211.617,-315.64,-0.237027
211.8187,-315.64,-0.237431
212.0182,-315.64,-0.241071
212.2186,-315.64,-0.231972
212.4189,-315.64,-0.236623
212.6194,-315.64,-0.239453
212.8195,-315.64,-0.23824
213.0204,-315.64,-0.239049
213.222,-315.64,-0.241071
213.4215,-315.64,-0.230961
213.6229,-315.64,-0.233994
213.8247,-315.64,-0.235005
214.0255,-315.64,-0.237431
214.2262,-315.64,-0.233792
214.4278,-315.64,-0.232579
214.6275,-315.64,-0.229748
214.8291,-315.64,-0.231366
215.0303,-315.64,-0.233792
215.2309,-315.64,-0.239656
215.4319,-315.64,-0.237836
215.6317,-315.64,-0.237431
215.8327,-315.64,-0.238038
216.0333,-315.64,-0.237027
216.2345,-315.64,-0.230557
216.4363,-315.64,-0.239049
216.6379,-315.64,-0.238645
216.8383,-315.64,-0.238038
217.0408,-315.64,-0.24006
217.2402,-315.64,-0.236825
217.4412,-315.64,-0.231366
217.6422,-315.64,-0.235814
217.8439,-315.64,-0.236016
218.0449,-315.64,-0.236218
218.2468,-315.64,-0.235612
218.4449,-315.64,-0.232377
218.6444,-315.64,-0.229546
218.8471,-315.64,-0.226513
219.047,-315.64,-0.233186
219.2479,-315.64,-0.231568
219.4477,-315.64,-0.234399
219.6489,-315.64,-0.232579
219.85,-315.64,-0.231568
220.0494,-315.64,-0.23359
220.2496,-315.64,-0.232579
220.4516,-315.64,-0.234803
220.653,-315.64,-0.233994
220.854,-315.64,-0.232781
221.0549,-315.64,-0.230759
221.2549,-315.64,-0.229951
221.4547,-315.64,-0.226311
221.6562,-315.64,-0.23177
221.8563,-315.64,-0.224896
222.0567,-315.64,-0.228737
222.2565,-315.64,-0.228333
222.4567,-315.64,-0.230557
222.6568,-315.64,-0.226918
222.8563,-315.64,-0.231972
223.0569,-315.64,-0.229546
223.2568,-315.64,-0.234601
223.4572,-315.64,-0.225502
223.6572,-315.64,-0.228333
223.8575,-315.64,-0.222874
224.0573,-315.64,-0.223885
224.2588,-315.64,-0.224492
224.4592,-315.64,-0.231366
224.6599,-315.64,-0.226716
224.8601,-315.64,-0.2253
225.0629,-315.64,-0.22894
225.2624,-315.64,-0.231568
225.464,-315.64,-0.23359
225.6646,-315.64,-0.228131
225.8648,-315.64,-0.234196
226.0662,-315.64,-0.228333
226.2665,-315.64,-0.229951
226.4675,-315.64,-0.223278
226.6692,-315.64,-0.226918
226.8706,-315.64,-0.225705
227.0703,-315.64,-0.229951
227.272,-315.64,-0.225502
227.4739,-315.64,-0.227727
227.6734,-315.64,-0.225098
227.8733,-315.64,-0.230557
228.0752,-315.64,-0.226918
228.2763,-315.64,-0.230557
228.477,-315.64,-0.23177
228.6784,-315.64,-0.236825
228.88,-315.64,-0.229344
229.0797,-315.64,-0.229344
229.281,-315.64,-0.223278
229.482,-315.64,-0.226716
229.6816,-315.64,-0.223481
229.882,-315.64,-0.228333
230.0814,-315.64,-0.227524
230.2824,-315.64,-0.226918
230.483,-315.64,-0.224087
230.6832,-315.64,-0.22712
230.8835,-315.64,-0.224694
231.0848,-315.64,-0.23359
231.2848,-315.64,-0.227727
231.4855,-315.64,-0.226311
231.6864,-315.64,-0.223278
231.8873,-315.64,-0.219841
232.0865,-315.64,-0.221863
232.2873,-315.475,-0.230355
232.5086,-314.406,-0.223481
232.7083,-313.073,-0.22247
232.9092,-311.74,-0.213169
233.1097,-310.407,3.29436
233.3101,-309.073,4.38819
233.511,-307.741,4.61463
233.7104,-306.408,4.63789
233.9117,-305.04,4.55357
234.112,-303.707,4.41386
234.3119,-302.375,4.26263
234.5123,-301.041,4.11422
234.7135,-299.708,3.97027
234.9154,-298.376,3.84592
235.1165,-297.009,3.71935
235.3172,-295.675,3.61219
235.5173,-294.342,3.52202
235.718,-293.009,3.44337
235.9179,-291.676,3.37928
236.119,-290.341,3.31357
236.3197,-289.008,3.26443
236.5204,-287.641,3.22076
236.7222,-286.308,3.187
236.9214,-284.975,3.15788
237.122,-283.642,3.13544
237.3219,-282.308,3.10026
237.522,-280.975,3.07499
237.7221,-279.643,3.06892
237.9231,-278.309,3.05113
238.1233,-276.976,3.04749
238.3236,-275.644,3.03576
238.524,-274.311,3.03091
238.7245,-272.977,3.02525
238.925,-271.61,3.02242
239.1251,-270.312,3.03091
239.326,-268.944,3.05153
239.5256,-267.611,3.08226
239.7261,-266.278,3.11886
239.926,-265.638,3.15364
240.1257,-265.639,3.19791
240.3255,-265.639,3.23188
240.5279,-265.639,3.23006
240.7278,-265.64,3.26545
240.9287,-265.64,3.25695
241.1289,-265.64,3.26039
241.3298,-265.64,3.25554
241.5297,-265.64,3.25958
241.7297,-265.64,3.26322
241.9297,-265.64,3.25877
242.1296,-265.64,3.25756
242.3305,-265.64,3.2519
242.5321,-265.64,3.25877
242.732,-265.64,3.25796
242.933,-265.64,3.2612
243.1342,-265.64,3.25817
243.3346,-265.64,3.25534
243.5344,-265.64,3.25918
243.7364,-265.64,3.25432
243.9363,-265.64,3.26241
244.1359,-265.64,3.25291
244.3363,-265.64,3.25877
244.5375,-265.64,3.25129
244.7389,-265.64,3.2517
244.9385,-265.64,3.25695
245.14,-265.64,3.25352
245.3415,-265.64,3.25412
245.544,-265.64,3.24947
245.7448,-265.64,3.25473
245.9463,-265.64,3.25372
246.1458,-265.64,3.25291
246.3474,-265.64,3.25594
246.5467,-265.64,3.25109
246.7477,-265.64,3.25432
246.9478,-265.64,3.24745
247.1481,-265.64,3.25392
247.3475,-265.64,3.25089
247.5478,-265.64,3.25048
247.7482,-265.64,3.25817
247.9484,-265.64,3.24664
248.1486,-265.64,3.24866
248.3485,-265.64,3.24846
248.5494,-265.64,3.25412
248.7493,-265.64,3.25028
248.9498,-265.64,3.25271
249.1498,-265.64,3.25534
249.3506,-265.64,3.2523
249.5518,-265.64,3.25958
249.652,-265.64,3.2517