File: Tinius-Olsen_Levitation_force/Preprocessed_measures/20231204_1644GDBCOs2_sl6_2.txt.csv
Time(s),Displacement(mm),Force(N)
0.0,-266.962,2.97591
0.2214,-268.029,3.00665
0.4235,-269.362,3.00766
0.6241,-270.732,3.00584
0.8244,-272.031,3.00139
1.0251,-273.366,3.01534
1.225,-274.699,3.01514
1.4261,-276.068,3.0392
1.6264,-277.402,3.04122
1.8269,-278.735,3.0578
2.0281,-280.067,3.06083
2.2275,-281.403,3.09237
2.4287,-282.736,3.08934
2.6287,-284.069,3.10936
2.8302,-285.402,3.11886
3.0294,-286.735,3.13807
3.2312,-288.105,3.15202
3.4303,-289.438,3.17062
3.6306,-290.771,3.18801
3.8306,-292.069,3.20661
4.0319,-293.439,3.22521
4.2314,-294.772,3.24118
4.4318,-296.105,3.24401
4.6324,-297.438,3.23997
4.835,-298.771,3.21207
5.0358,-300.139,3.17143
5.2371,-301.472,3.08651
5.4371,-302.805,2.95044
5.6378,-304.137,2.73956
5.8401,-305.471,2.43668
6.0421,-306.837,1.98379
6.243,-308.173,1.33477
6.4428,-309.506,0.414013
6.6451,-310.873,-0.86522
6.8462,-312.172,-2.62869
7.0456,-313.505,-5.025
7.246,-314.84,-8.15626
7.4463,-316.176,-12.1236
7.6473,-316.801,-13.7966
7.8477,-316.801,-13.604
8.0485,-316.801,-13.5067
8.25,-316.8,-13.4438
8.4497,-316.8,-13.3955
8.6497,-316.8,-13.3674
8.8522,-316.8,-13.3322
9.0534,-316.8,-13.311
9.2544,-316.8,-13.2827
9.455,-316.8,-13.2669
9.6566,-316.8,-13.2582
9.8578,-316.8,-13.2408
10.0595,-316.8,-13.219
10.2597,-316.8,-13.2107
10.4597,-316.8,-13.1929
10.6598,-316.8,-13.1806
10.8597,-316.8,-13.1628
11.0596,-316.8,-13.1592
11.261,-316.8,-13.1501
11.4608,-316.8,-13.143
11.6609,-316.8,-13.1359
11.8609,-316.8,-13.1199
12.0617,-316.8,-13.1096
12.2617,-316.8,-13.1046
12.4628,-316.8,-13.0959
12.6627,-316.8,-13.0924
12.8645,-316.8,-13.094
13.0656,-316.8,-13.072
13.2661,-316.8,-13.0728
13.4669,-316.8,-13.0617
13.6669,-316.8,-13.0573
13.8689,-316.8,-13.0577
14.0713,-316.8,-13.049
14.2717,-316.8,-13.0469
14.4715,-316.8,-13.0391
14.6751,-316.8,-13.03
14.8765,-316.8,-13.0296
15.0768,-316.8,-13.0237
15.277,-316.8,-13.0233
15.4771,-316.8,-13.0146
15.6768,-316.8,-13.011
15.8767,-316.8,-13.0097
16.0774,-316.8,-12.9996
16.2778,-316.8,-12.995
16.4781,-316.8,-12.9942
16.6786,-316.8,-12.9915
16.8786,-316.8,-12.9863
17.0789,-316.8,-12.9903
17.2786,-316.8,-12.9742
17.4792,-316.8,-12.9707
17.6798,-316.8,-12.9697
17.8798,-316.8,-12.9707
18.0805,-316.8,-12.9608
18.282,-316.8,-12.9653
18.4825,-316.8,-12.9586
18.6828,-316.8,-12.957
18.8833,-316.8,-12.946
19.0828,-316.8,-12.9412
19.2829,-316.8,-12.9412
19.4825,-316.8,-12.939
19.6829,-316.8,-12.9406
19.884,-316.8,-12.9337
20.0851,-316.8,-12.9274
20.2868,-316.8,-12.9291
20.4865,-316.8,-12.9293
20.6873,-316.8,-12.92
20.8879,-316.8,-12.9173
21.0899,-316.8,-12.9109
21.2898,-316.8,-12.9141
21.4912,-316.8,-12.905
21.6912,-316.8,-12.9082
21.892,-316.8,-12.9052
22.0938,-316.8,-12.9052
22.2963,-316.8,-12.8985
22.4963,-316.8,-12.8983
22.6957,-316.8,-12.8929
22.8971,-316.8,-12.8957
23.0968,-316.8,-12.886
23.2974,-316.8,-12.8838
23.4983,-316.8,-12.8801
23.6982,-316.8,-12.884
23.8975,-316.8,-12.8803
24.0983,-316.8,-12.8739
24.2977,-316.8,-12.8753
24.4993,-316.8,-12.867
24.6993,-316.8,-12.8638
24.899,-316.8,-12.8702
25.099,-316.8,-12.87
25.2989,-316.8,-12.8668
25.4993,-316.8,-12.8621
25.6992,-316.8,-12.8565
25.8993,-316.8,-12.8569
26.0998,-316.8,-12.8539
26.2999,-316.8,-12.853
26.4999,-316.8,-12.8478
26.6996,-316.8,-12.8514
26.8998,-316.8,-12.8488
27.101,-316.8,-12.8488
27.3008,-316.8,-12.8456
27.5011,-316.8,-12.8454
27.7012,-316.8,-12.8452
27.9018,-316.8,-12.8369
28.1018,-316.8,-12.8336
28.3017,-316.8,-12.8304
28.5018,-316.8,-12.8264
28.7022,-316.8,-12.8164
28.9031,-316.8,-12.8205
29.1039,-316.8,-12.8278
29.3043,-316.8,-12.8328
29.5037,-316.8,-12.8286
29.7046,-316.8,-12.8249
29.9061,-316.8,-12.815
30.106,-316.8,-12.8183
30.3073,-316.8,-12.8199
30.5066,-316.8,-12.8094
30.7068,-316.8,-12.8128
30.9087,-316.8,-12.8084
31.1092,-316.8,-12.8073
31.3086,-316.8,-12.8003
31.5092,-316.8,-12.8017
31.7094,-316.8,-12.8019
31.9095,-316.8,-12.7928
32.1108,-316.8,-12.7999
32.3123,-316.8,-12.7946
32.5121,-316.8,-12.7887
32.7123,-316.8,-12.7948
32.912,-316.8,-12.7918
33.113,-316.8,-12.7908
33.3137,-316.8,-12.7918
33.5167,-316.8,-12.7918
33.718,-316.8,-12.7825
33.9186,-316.8,-12.7871
34.1203,-316.8,-12.7797
34.3206,-316.8,-12.7754
34.521,-316.8,-12.7714
34.7214,-316.8,-12.7799
34.9213,-316.8,-12.7778
35.1207,-316.8,-12.776
35.321,-316.8,-12.7679
35.5214,-316.8,-12.775
35.7213,-316.8,-12.7754
35.9213,-316.8,-12.7774
36.122,-316.8,-12.7681
36.3219,-316.8,-12.7722
36.5223,-316.8,-12.7602
36.7223,-316.8,-12.7673
36.9223,-316.8,-12.7631
37.1221,-316.8,-12.7576
37.3223,-316.8,-12.7576
37.5223,-316.8,-12.7552
37.7223,-316.8,-12.754
37.9218,-316.8,-12.7532
38.1224,-316.8,-12.7562
38.3218,-316.8,-12.7515
38.5216,-316.8,-12.7507
38.7231,-316.8,-12.7422
38.924,-316.8,-12.7433
39.1248,-316.8,-12.7362
39.3251,-316.8,-12.7427
39.5251,-316.8,-12.7386
39.7252,-316.8,-12.7354
39.9252,-316.8,-12.7273
40.1247,-316.8,-12.7366
40.3258,-316.8,-12.7356
40.5261,-316.8,-12.7321
40.7276,-316.8,-12.7317
40.9275,-316.8,-12.7333
41.1279,-316.8,-12.7289
41.3283,-316.8,-12.7245
41.5292,-316.8,-12.7249
41.7297,-316.8,-12.7279
41.9298,-316.8,-12.7232
42.1299,-316.8,-12.722
42.3299,-316.8,-12.7216
42.53,-316.8,-12.7188
42.73,-316.8,-12.7192
42.93,-316.8,-12.716
43.1313,-316.8,-12.718
43.3319,-316.8,-12.715
43.5324,-316.8,-12.7107
43.7334,-316.8,-12.7172
43.9331,-316.8,-12.7081
44.1329,-316.8,-12.7135
44.3333,-316.8,-12.7107
44.5342,-316.8,-12.7101
44.735,-316.8,-12.7022
44.9355,-316.8,-12.7061
45.1358,-316.8,-12.7042
45.3371,-316.8,-12.7018
45.537,-316.8,-12.7032
45.7375,-316.8,-12.7063
45.9386,-316.8,-12.7063
46.1379,-316.8,-12.7034
46.3385,-316.8,-12.7024
46.5382,-316.8,-12.7032
46.7385,-316.8,-12.6998
46.9395,-316.8,-12.702
47.1395,-316.8,-12.6957
47.3399,-316.8,-12.6935
47.54,-316.8,-12.6889
47.7403,-316.8,-12.6903
47.94,-316.8,-12.6919
48.1408,-316.8,-12.6891
48.3412,-316.8,-12.6891
48.5408,-316.8,-12.6915
48.7413,-316.8,-12.6899
48.9424,-316.8,-12.6893
49.1419,-316.8,-12.685
49.3428,-316.8,-12.6852
49.5439,-316.8,-12.6858
49.7446,-316.8,-12.6735
49.9449,-316.8,-12.6775
50.1451,-316.8,-12.6767
50.3451,-316.8,-12.6721
50.5448,-316.8,-12.6769
50.745,-316.8,-12.6775
50.945,-316.8,-12.6763
51.1458,-316.8,-12.6735
51.3466,-316.8,-12.6697
51.5465,-316.8,-12.6735
51.7462,-316.8,-12.6642
51.947,-316.8,-12.6717
52.1483,-316.8,-12.6717
52.3484,-316.8,-12.6612
52.5484,-316.8,-12.6612
52.748,-316.8,-12.6626
52.9478,-316.8,-12.6593
53.1479,-316.8,-12.6579
53.3487,-316.8,-12.6585
53.55,-316.8,-12.6541
53.7526,-316.8,-12.6585
53.9521,-316.8,-12.6575
54.1518,-316.8,-12.6515
54.3525,-316.8,-12.6513
54.5536,-316.8,-12.6507
54.7543,-316.8,-12.6515
54.9543,-316.8,-12.65
55.1538,-316.8,-12.6533
55.3546,-316.8,-12.6543
55.5547,-316.8,-12.6547
55.7547,-316.8,-12.6482
55.9538,-316.8,-12.646
56.1552,-316.8,-12.6511
56.3561,-316.8,-12.6474
56.5564,-316.8,-12.6517
56.7563,-316.8,-12.6464
56.9565,-316.8,-12.6567
57.1566,-316.8,-12.6383
57.3561,-316.8,-12.6464
57.5567,-316.8,-12.6389
57.7576,-316.8,-12.6383
57.9582,-316.8,-12.6401
58.1597,-316.8,-12.6351
58.3601,-316.8,-12.6371
58.5602,-316.8,-12.6347
58.761,-316.8,-12.6286
58.9622,-316.8,-12.6246
59.1641,-316.8,-12.6405
59.3644,-316.8,-12.6363
59.5653,-316.8,-12.6323
59.7654,-316.8,-12.63
59.9651,-316.8,-12.6312
60.1654,-316.8,-12.6264
60.3657,-316.8,-12.6325
60.5677,-316.8,-12.6333
60.7683,-316.8,-12.6284
60.9692,-316.8,-12.6207
61.169,-316.8,-12.6228
61.3694,-316.8,-12.6282
61.569,-316.8,-12.6096
61.7697,-316.8,-12.6226
61.9702,-316.8,-12.6207
62.1713,-316.8,-12.6076
62.3723,-316.8,-12.6104
62.5722,-316.8,-12.6179
62.7726,-316.8,-12.6102
62.9735,-316.8,-12.6175
63.1734,-316.8,-12.6074
63.3738,-316.8,-12.612
63.5731,-316.8,-12.6155
63.7743,-316.8,-12.6149
63.974,-316.8,-12.6116
64.1746,-316.8,-12.6135
64.3756,-316.8,-12.6201
64.5754,-316.8,-12.6137
64.7749,-316.8,-12.6072
64.9762,-316.8,-12.6106
65.1767,-316.8,-12.6054
65.3763,-316.8,-12.6017
65.5777,-316.8,-12.5959
65.7779,-316.8,-12.6046
65.9781,-316.8,-12.6044
66.1797,-316.8,-12.6023
66.3792,-316.8,-12.6019
66.5789,-316.8,-12.6017
66.7791,-316.8,-12.6015
66.9796,-316.8,-12.5967
67.1804,-316.8,-12.6025
67.3802,-316.8,-12.6031
67.5802,-316.8,-12.591
67.781,-316.8,-12.5979
67.9811,-316.8,-12.5961
68.1822,-316.8,-12.5914
68.3824,-316.8,-12.5963
68.5822,-316.8,-12.592
68.7822,-316.8,-12.5963
68.9822,-316.8,-12.6015
69.1827,-316.8,-12.592
69.3824,-316.8,-12.5809
69.5826,-316.8,-12.5898
69.783,-316.8,-12.5902
69.9844,-316.8,-12.5896
70.184,-316.8,-12.5853
70.385,-316.8,-12.587
70.585,-316.8,-12.5825
70.785,-316.8,-12.5835
70.9858,-316.8,-12.5884
71.1866,-316.8,-12.5799
71.3871,-316.8,-12.5868
71.5876,-316.8,-12.5858
71.787,-316.8,-12.5811
71.9878,-316.8,-12.5771
72.1891,-316.8,-12.5779
72.3894,-316.8,-12.5803
72.5903,-316.8,-12.5797
72.7901,-316.8,-12.574
72.9912,-316.8,-12.5799
73.1919,-316.8,-12.5682
73.3933,-316.8,-12.5849
73.5936,-316.8,-12.5811
73.7943,-316.8,-12.574
73.994,-316.8,-12.5736
74.1957,-316.8,-12.5734
74.395,-316.8,-12.5742
74.5958,-316.8,-12.5678
74.796,-316.8,-12.57
74.9967,-316.8,-12.5649
75.197,-316.8,-12.5623
75.3977,-316.8,-12.5617
75.5979,-316.8,-12.5633
75.7981,-316.8,-12.5647
75.9983,-316.8,-12.553
76.1988,-316.8,-12.5601
76.3988,-316.8,-12.5621
76.5998,-316.8,-12.5623
76.7999,-316.8,-12.5617
77.0002,-316.8,-12.5625
77.2016,-316.8,-12.5589
77.4023,-316.8,-12.5581
77.6021,-316.8,-12.5585
77.8027,-316.8,-12.5589
78.0036,-316.8,-12.5548
78.2038,-316.8,-12.5572
78.404,-316.8,-12.5605
78.6044,-316.8,-12.5572
78.8041,-316.8,-12.5534
79.0057,-316.8,-12.5534
79.2055,-316.8,-12.5516
79.4057,-316.8,-12.5502
79.6051,-316.8,-12.5477
79.8063,-316.8,-12.5447
80.0064,-316.8,-12.5512
80.2064,-316.8,-12.5498
80.4064,-316.8,-12.5431
80.6077,-316.8,-12.5382
80.8073,-316.8,-12.5417
81.0079,-316.8,-12.5526
81.2084,-316.8,-12.5435
81.4091,-316.8,-12.5397
81.6093,-316.8,-12.549
81.8103,-316.8,-12.5429
82.0124,-316.8,-12.5459
82.2128,-316.8,-12.5409
82.4149,-316.8,-12.5465
82.6142,-316.8,-12.5384
82.8162,-316.8,-12.5427
83.0163,-316.8,-12.5334
83.2171,-316.8,-12.5368
83.4185,-316.8,-12.539
83.6192,-316.8,-12.5384
83.8197,-316.8,-12.5328
84.0207,-316.8,-12.5348
84.2207,-316.8,-12.5324
84.4203,-316.8,-12.5352
84.6217,-316.8,-12.5401
84.8214,-316.8,-12.5334
85.0228,-316.8,-12.5306
85.2236,-316.8,-12.5257
85.4232,-316.8,-12.5277
85.6241,-316.8,-12.5308
85.8254,-316.8,-12.5281
86.0261,-316.8,-12.5283
86.2267,-316.8,-12.5249
86.4266,-316.8,-12.5259
86.6268,-316.8,-12.5223
86.8262,-316.8,-12.5249
87.0267,-316.8,-12.5225
87.2264,-316.8,-12.5217
87.4267,-316.8,-12.5186
87.6263,-316.8,-12.5202
87.8262,-316.8,-12.52
88.0277,-316.8,-12.5136
88.228,-316.8,-12.5198
88.4274,-316.8,-12.5172
88.6282,-316.8,-12.5162
88.829,-316.8,-12.5176
89.0287,-316.8,-12.5215
89.229,-316.8,-12.5124
89.4281,-316.8,-12.5138
89.629,-316.8,-12.5211
89.8289,-316.8,-12.5182
90.0298,-316.8,-12.5209
90.23,-316.8,-12.518
90.4306,-316.8,-12.517
90.6303,-316.8,-12.5138
90.8304,-316.8,-12.5061
91.0318,-316.8,-12.5085
91.2329,-316.8,-12.5087
91.4329,-316.8,-12.5041
91.6325,-316.8,-12.5093
91.8329,-316.8,-12.514
92.0324,-316.8,-12.5116
92.2333,-316.8,-12.5099
92.435,-316.8,-12.5083
92.6355,-316.8,-12.513
92.8364,-316.8,-12.5045
93.0368,-316.8,-12.4984
93.2362,-316.8,-12.502
93.4361,-316.8,-12.5025
93.6369,-316.8,-12.4996
93.8371,-316.8,-12.5035
94.0364,-316.8,-12.497
94.2363,-316.8,-12.4992
94.4378,-316.8,-12.5006
94.6386,-316.8,-12.5029
94.8387,-316.8,-12.5073
95.0408,-316.8,-12.5025
95.2403,-316.8,-12.4966
95.4405,-316.8,-12.5018
95.6415,-316.8,-12.4946
95.8428,-316.8,-12.4978
96.0426,-316.8,-12.4913
96.2429,-316.8,-12.498
96.4428,-316.8,-12.4921
96.6429,-316.8,-12.4921
96.8429,-316.8,-12.4897
97.0429,-316.8,-12.4921
97.2429,-316.8,-12.4903
97.4429,-316.8,-12.4956
97.6429,-316.8,-12.4875
97.8423,-316.8,-12.4869
98.0439,-316.8,-12.4936
98.2434,-316.8,-12.4881
98.4451,-316.8,-12.4881
98.6449,-316.8,-12.4877
98.8461,-316.8,-12.4879
99.0471,-316.8,-12.4909
99.247,-316.8,-12.4859
99.4467,-316.8,-12.4853
99.6475,-316.8,-12.4887
99.8474,-316.8,-12.4853
100.0488,-316.8,-12.4859
100.2485,-316.8,-12.4739
100.451,-316.8,-12.4853
100.6505,-316.8,-12.4748
100.8505,-316.8,-12.4776
101.0524,-316.8,-12.4756
101.2527,-316.8,-12.4794
101.4525,-316.8,-12.4711
101.6527,-316.8,-12.4802
101.8529,-316.8,-12.475
102.0537,-316.8,-12.4841
102.2533,-316.8,-12.4808
102.4537,-316.8,-12.4826
102.6537,-316.8,-12.4776
102.8538,-316.8,-12.4774
103.0533,-316.8,-12.4679
103.2544,-316.8,-12.4657
103.4557,-316.8,-12.4703
103.6568,-316.8,-12.4739
103.8574,-316.8,-12.4679
104.0578,-316.8,-12.4719
104.2572,-316.8,-12.4677
104.4578,-316.8,-12.4689
104.658,-316.8,-12.458
104.8575,-316.8,-12.4648
105.0595,-316.8,-12.4663
105.2604,-316.8,-12.462
105.4604,-316.8,-12.4653
105.6608,-316.8,-12.4707
105.8613,-316.8,-12.4663
106.0625,-316.8,-12.4636
106.2626,-316.8,-12.4644
106.4625,-316.8,-12.4638
106.6624,-316.8,-12.4644
106.8634,-316.8,-12.4574
107.0635,-316.8,-12.458
107.2634,-316.8,-12.4608
107.4635,-316.8,-12.4523
107.6637,-316.8,-12.4616
107.8636,-316.8,-12.4576
108.0648,-316.8,-12.4588
108.2647,-316.8,-12.4612
108.4654,-316.8,-12.4618
108.6657,-316.8,-12.465
108.8659,-316.8,-12.464
109.0653,-316.8,-12.4535
109.2669,-316.8,-12.4533
109.4673,-316.8,-12.4562
109.6691,-316.8,-12.4568
109.869,-316.8,-12.4531
110.069,-316.8,-12.461
110.2683,-316.8,-12.4606
110.4683,-316.8,-12.4566
110.6689,-316.8,-12.463
110.87,-316.8,-12.4493
111.0704,-316.8,-12.4444
111.2706,-316.8,-12.4466
111.4707,-316.8,-12.4507
111.6705,-316.8,-12.4531
111.8715,-316.8,-12.4438
112.073,-316.8,-12.4479
112.2732,-316.8,-12.444
112.4739,-316.8,-12.4444
112.6742,-316.8,-12.4446
112.8733,-316.8,-12.446
113.0746,-316.8,-12.4434
113.2743,-316.8,-12.4456
113.4748,-316.8,-12.442
113.6754,-316.8,-12.4475
113.8759,-316.8,-12.4479
114.0753,-316.8,-12.444
114.2757,-316.8,-12.4363
114.477,-316.8,-12.4369
114.6769,-316.8,-12.4345
114.877,-316.8,-12.4325
115.077,-316.8,-12.4317
115.2764,-316.8,-12.4218
115.4777,-316.8,-12.4313
115.6779,-316.8,-12.4347
115.879,-316.8,-12.4313
116.079,-316.8,-12.4355
116.2798,-316.8,-12.4361
116.4804,-316.8,-12.4398
116.6806,-316.8,-12.4333
116.8806,-316.8,-12.4394
117.0804,-316.8,-12.4327
117.2807,-316.8,-12.4406
117.4809,-316.8,-12.4335
117.6804,-316.8,-12.4369
117.8806,-316.8,-12.4327
118.0832,-316.8,-12.4345
118.2827,-316.8,-12.4285
118.4831,-316.8,-12.4325
118.6826,-316.8,-12.4278
118.883,-316.8,-12.4466
119.0837,-316.8,-12.4268
119.2843,-316.8,-12.4315
119.4839,-316.8,-12.4262
119.6843,-316.8,-12.4258
119.8841,-316.8,-12.4272
120.0843,-316.8,-12.4276
120.2838,-316.8,-12.4147
120.4849,-316.8,-12.4206
120.6862,-316.8,-12.424
120.8867,-316.8,-12.4165
121.0866,-316.8,-12.4234
121.2877,-316.8,-12.4272
121.4877,-316.8,-12.4212
121.6892,-316.8,-12.4198
121.8895,-316.8,-12.4264
122.0908,-316.8,-12.4212
122.2907,-316.8,-12.4179
122.4908,-316.8,-12.4165
122.6907,-316.8,-12.4202
122.8907,-316.8,-12.4206
123.0925,-316.8,-12.4149
123.2925,-316.8,-12.4149
123.493,-316.8,-12.4204
123.6927,-316.8,-12.4143
123.8944,-316.8,-12.4147
124.0943,-316.8,-12.4129
124.2944,-316.8,-12.4139
124.4964,-316.8,-12.4121
124.6962,-316.8,-12.4135
124.8969,-316.8,-12.4147
125.0984,-316.8,-12.4034
125.298,-316.8,-12.4129
125.4976,-316.8,-12.4058
125.6979,-316.8,-12.4086
125.8981,-316.8,-12.4125
126.098,-316.8,-12.4022
126.2976,-316.8,-12.4096
126.4995,-316.8,-12.4107
126.7012,-316.8,-12.4082
126.9007,-316.8,-12.4078
127.1016,-316.8,-12.4068
127.3027,-316.8,-12.4018
127.5028,-316.8,-12.4072
127.7041,-316.8,-12.4026
127.9051,-316.8,-12.4084
128.1047,-316.8,-12.409
128.3052,-316.8,-12.4094
128.5047,-316.8,-12.4147
128.7053,-316.8,-12.4078
128.9054,-316.8,-12.404
129.1055,-316.8,-12.3977
129.3076,-316.8,-12.4052
129.5081,-316.8,-12.4026
129.7084,-316.8,-12.403
129.9093,-316.8,-12.4006
130.1102,-316.8,-12.3989
130.3114,-316.8,-12.3979
130.5109,-316.8,-12.3999
130.7106,-316.8,-12.4034
130.9108,-316.8,-12.3959
131.1108,-316.8,-12.4056
131.3108,-316.8,-12.3963
131.5108,-316.8,-12.3951
131.7116,-316.8,-12.4032
131.9116,-316.8,-12.4016
132.1127,-316.8,-12.3993
132.3132,-316.8,-12.4016
132.5128,-316.8,-12.3953
132.7126,-316.8,-12.3993
132.9135,-316.8,-12.3999
133.1146,-316.8,-12.3983
133.3152,-316.8,-12.3933
133.5185,-316.8,-12.3947
133.7174,-316.8,-12.3981
133.9168,-316.8,-12.387
134.1172,-316.8,-12.3923
134.3178,-316.8,-12.3961
134.5179,-316.8,-12.3923
134.7178,-316.8,-12.4052
134.9188,-316.8,-12.3915
135.1204,-316.8,-12.3939
135.3208,-316.8,-12.387
135.5207,-316.8,-12.3801
135.7209,-316.8,-12.3842
135.9206,-316.8,-12.3828
136.121,-316.8,-12.3824
136.3231,-316.8,-12.3783
136.5238,-316.8,-12.3751
136.7241,-316.8,-12.3743
136.9243,-316.8,-12.3801
137.1256,-316.8,-12.3761
137.3273,-316.8,-12.3779
137.528,-316.8,-12.3803
137.7281,-316.8,-12.385
137.9286,-316.8,-12.3856
138.1295,-316.8,-12.3811
138.3292,-316.8,-12.3757
138.5302,-316.8,-12.3779
138.7301,-316.8,-12.3745
138.9298,-316.8,-12.3832
139.1313,-316.8,-12.3755
139.3309,-316.8,-12.3809
139.5309,-316.8,-12.3836
139.733,-316.8,-12.3822
139.9347,-316.8,-12.3757
140.133,-316.8,-12.3795
140.3328,-316.8,-12.3749
140.5331,-316.8,-12.3781
140.7339,-316.8,-12.3862
140.9345,-316.8,-12.3757
141.1361,-316.8,-12.3765
141.3357,-316.8,-12.3757
141.5361,-316.8,-12.3799
141.7371,-316.8,-12.3718
141.9386,-316.8,-12.3773
142.1387,-316.8,-12.3668
142.3393,-316.8,-12.3779
142.5392,-316.8,-12.3698
142.7386,-316.8,-12.3753
142.9386,-316.8,-12.3793
143.1393,-316.8,-12.3769
143.3394,-316.8,-12.3688
143.5386,-316.8,-12.3658
143.7396,-316.8,-12.371
143.9408,-316.8,-12.3737
144.1424,-316.8,-12.3702
144.3422,-316.8,-12.3694
144.5433,-316.8,-12.3633
144.743,-316.8,-12.3638
144.9433,-316.8,-12.3676
145.143,-316.8,-12.3686
145.3439,-316.8,-12.3636
145.5455,-316.8,-12.3642
145.7463,-316.8,-12.3648
145.9472,-316.8,-12.3716
146.1486,-316.8,-12.3629
146.3495,-316.8,-12.3601
146.5486,-316.8,-12.3615
146.7488,-316.8,-12.3532
146.9505,-316.8,-12.3587
147.15,-316.8,-12.3589
147.3501,-316.8,-12.3567
147.5502,-316.8,-12.3569
147.7502,-316.8,-12.3587
147.9501,-316.8,-12.3557
148.1499,-316.8,-12.3585
148.351,-316.8,-12.3502
148.5507,-316.8,-12.3551
148.7529,-316.8,-12.3532
148.9538,-316.8,-12.3534
149.1548,-316.8,-12.354
149.358,-316.8,-12.3565
149.5567,-316.8,-12.354
149.7577,-316.8,-12.3516
149.9588,-316.8,-12.3474
150.1604,-316.8,-12.3553
150.3599,-316.8,-12.353
150.5602,-316.8,-12.353
150.761,-316.8,-12.3482
150.961,-316.8,-12.3518
151.161,-316.8,-12.3591
151.361,-316.8,-12.3553
151.5624,-316.8,-12.3488
151.7636,-316.8,-12.3484
151.9632,-316.8,-12.352
152.1631,-316.8,-12.3518
152.3646,-316.8,-12.3498
152.5661,-316.8,-12.3466
152.7662,-316.8,-12.3492
152.9662,-316.8,-12.3478
153.1665,-316.8,-12.3567
153.366,-316.8,-12.3492
153.5672,-316.8,-12.3494
153.7673,-316.8,-12.3506
153.9684,-316.8,-12.35
154.1677,-316.8,-12.3474
154.3693,-316.8,-12.3466
154.569,-316.8,-12.3482
154.769,-316.8,-12.3549
154.97,-316.8,-12.3429
155.171,-316.8,-12.3318
155.371,-316.8,-12.3407
155.571,-316.8,-12.3427
155.7711,-316.8,-12.3435
155.971,-316.8,-12.3421
156.1709,-316.8,-12.3417
156.371,-316.8,-12.3431
156.572,-316.8,-12.3379
156.7726,-316.8,-12.3413
156.9718,-316.8,-12.3356
157.1736,-316.8,-12.3468
157.3734,-316.8,-12.3472
157.5732,-316.8,-12.3417
157.7734,-316.8,-12.3433
157.9741,-316.8,-12.3425
158.1746,-316.8,-12.3466
158.3744,-316.8,-12.3391
158.575,-316.8,-12.3407
158.7754,-316.8,-12.3458
158.9756,-316.8,-12.3417
159.1749,-316.8,-12.3439
159.3753,-316.8,-12.3387
159.5766,-316.8,-12.3365
159.7778,-316.8,-12.3328
159.9787,-316.8,-12.3338
160.1783,-316.8,-12.3367
160.3789,-316.8,-12.3356
160.5798,-316.8,-12.3397
160.7799,-316.8,-12.3322
160.9803,-316.8,-12.3336
161.1809,-316.8,-12.3367
161.3812,-316.8,-12.3261
161.582,-316.8,-12.3261
161.7834,-316.8,-12.3247
161.9847,-316.8,-12.3233
162.1857,-316.8,-12.3263
162.3852,-316.8,-12.3229
162.5849,-316.8,-12.3231
162.785,-316.8,-12.327
162.985,-316.8,-12.3292
163.1859,-316.8,-12.3221
163.386,-316.8,-12.3243
163.5867,-316.8,-12.3243
163.7862,-316.8,-12.3237
163.9866,-316.8,-12.3187
164.1858,-316.8,-12.3243
164.3867,-316.8,-12.3217
164.5865,-316.8,-12.327
164.7866,-316.8,-12.3203
164.9865,-316.8,-12.3227
165.1874,-316.8,-12.3241
165.3876,-316.8,-12.3255
165.5876,-316.8,-12.3278
165.7876,-316.8,-12.3274
165.9889,-316.8,-12.3241
166.1889,-316.8,-12.3203
166.3891,-316.8,-12.316
166.59,-316.8,-12.3187
166.7902,-316.8,-12.3201
166.991,-316.8,-12.3221
167.1911,-316.8,-12.3278
167.3921,-316.8,-12.3239
167.5929,-316.8,-12.3274
167.7929,-316.8,-12.3229
167.9929,-316.8,-12.3185
168.1932,-316.8,-12.3179
168.3939,-316.8,-12.3168
168.5947,-316.8,-12.3177
168.7939,-316.8,-12.3207
168.9956,-316.8,-12.317
169.195,-316.8,-12.3205
169.3956,-316.8,-12.3183
169.5949,-316.8,-12.3166
169.7957,-316.8,-12.3138
169.9957,-316.8,-12.3183
170.1967,-316.8,-12.3166
170.3963,-316.8,-12.3128
170.5969,-316.8,-12.3132
170.7973,-316.8,-12.3116
170.997,-316.8,-12.3061
171.1978,-316.8,-12.3168
171.3981,-316.8,-12.3162
171.5981,-316.8,-12.317
171.7978,-316.8,-12.3142
171.9988,-316.8,-12.3082
172.1992,-316.8,-12.3199
172.3991,-316.8,-12.317
172.5992,-316.8,-12.314
172.8013,-316.8,-12.3069
173.0028,-316.8,-12.3106
173.2021,-316.8,-12.3061
173.402,-316.8,-12.3144
173.6036,-316.8,-12.3051
173.8042,-316.8,-12.2966
174.0041,-316.8,-12.3043
174.2041,-316.8,-12.3049
174.4048,-316.8,-12.3047
174.6045,-316.8,-12.3035
174.8049,-316.8,-12.3124
175.0051,-316.8,-12.3047
175.2059,-316.8,-12.3043
175.4075,-316.8,-12.3029
175.6081,-316.8,-12.3053
175.8089,-316.8,-12.3053
176.0091,-316.8,-12.3027
176.2097,-316.8,-12.3035
176.4093,-316.8,-12.3061
176.6097,-316.8,-12.3037
176.81,-316.8,-12.2999
177.0105,-316.8,-12.3047
177.2103,-316.8,-12.3079
177.4103,-316.8,-12.2999
177.6107,-316.8,-12.3037
177.8108,-316.8,-12.3029
178.011,-316.8,-12.3013
178.2116,-316.8,-12.3043
178.4115,-316.8,-12.3025
178.6122,-316.8,-12.3059
178.8139,-316.8,-12.3019
179.0149,-316.8,-12.2995
179.2141,-316.8,-12.3035
179.415,-316.8,-12.2995
179.6152,-316.8,-12.2976
179.8166,-316.8,-12.2982
180.0165,-316.8,-12.294
180.2165,-316.8,-12.2898
180.4169,-316.8,-12.2972
180.6182,-316.8,-12.2968
180.819,-316.8,-12.2938
181.0195,-316.8,-12.2966
181.2195,-316.8,-12.29
181.4191,-316.8,-12.2936
181.6193,-316.8,-12.2898
181.8191,-316.8,-12.2875
182.0198,-316.8,-12.2891
182.2198,-316.8,-12.2883
182.4199,-316.8,-12.2922
182.6205,-316.8,-12.2904
182.8204,-316.8,-12.2885
183.0205,-316.8,-12.2865
183.221,-316.8,-12.2883
183.4211,-316.8,-12.2875
183.6221,-316.8,-12.2914
183.8225,-316.8,-12.2889
184.0229,-316.8,-12.295
184.2232,-316.8,-12.2942
184.4235,-316.8,-12.2875
184.6236,-316.8,-12.2912
184.8235,-316.8,-12.2896
185.0237,-316.8,-12.2885
185.2247,-316.8,-12.2849
185.4241,-316.8,-12.2803
185.6242,-316.8,-12.2902
185.8254,-316.8,-12.2889
186.0251,-316.8,-12.2873
186.2252,-316.8,-12.2871
186.4252,-316.8,-12.2833
186.6256,-316.8,-12.2857
186.8252,-316.8,-12.2845
187.0261,-316.8,-12.2837
187.2263,-316.8,-12.2817
187.427,-316.8,-12.2805
187.6271,-316.8,-12.2845
187.8275,-316.8,-12.2835
188.0272,-316.8,-12.2849
188.2279,-316.8,-12.2847
188.4279,-316.8,-12.2776
188.6274,-316.8,-12.2803
188.8276,-316.8,-12.2843
189.0288,-316.8,-12.28
189.2282,-316.8,-12.2831
189.4298,-316.8,-12.2811
189.6297,-316.8,-12.274
189.8293,-316.8,-12.2756
190.0297,-316.8,-12.2746
190.2291,-316.8,-12.278
190.4299,-316.8,-12.2803
190.6304,-316.8,-12.276
190.832,-316.8,-12.2703
191.0313,-316.8,-12.2705
191.2322,-316.8,-12.2798
191.433,-316.8,-12.2823
191.6344,-316.8,-12.2774
191.834,-316.8,-12.2746
192.0354,-316.8,-12.2766
192.2367,-316.8,-12.2807
192.4374,-316.8,-12.2746
192.6382,-316.8,-12.2722
192.8384,-316.8,-12.2744
193.0392,-316.8,-12.275
193.2408,-316.8,-12.2782
193.4406,-316.8,-12.2774
193.6413,-316.8,-12.2764
193.8412,-316.8,-12.2744
194.0412,-316.8,-12.2724
194.2417,-316.8,-12.2703
194.441,-316.8,-12.2645
194.642,-316.8,-12.2629
194.8422,-316.8,-12.2699
195.0445,-316.8,-12.2685
195.2458,-316.8,-12.2697
195.4458,-316.8,-12.2724
195.6459,-316.8,-12.2635
195.8461,-316.8,-12.2645
196.047,-316.8,-12.2675
196.2478,-316.8,-12.2707
196.4472,-316.8,-12.2627
196.6476,-316.8,-12.2647
196.8489,-316.8,-12.2629
197.0484,-316.8,-12.2657
197.2497,-316.8,-12.2637
197.4494,-316.8,-12.2705
197.6498,-316.8,-12.2621
197.8504,-316.8,-12.2633
198.0519,-316.8,-12.2675
198.2515,-316.8,-12.2685
198.4512,-316.8,-12.2693
198.6514,-316.8,-12.2716
198.8515,-316.8,-12.2625
199.0514,-316.8,-12.2677
199.2524,-316.8,-12.2655
199.4531,-316.8,-12.2592
199.6536,-316.8,-12.2635
199.8544,-316.8,-12.2695
200.0552,-316.8,-12.258
200.257,-316.8,-12.2639
200.4573,-316.8,-12.2621
200.6577,-316.8,-12.2639
200.8584,-316.8,-12.2608
201.0596,-316.8,-12.2536
201.2596,-316.8,-12.2515
201.4599,-316.8,-12.2501
201.6604,-316.8,-12.2497
201.8613,-316.8,-12.257
202.0625,-316.8,-12.254
202.2633,-316.8,-12.256
202.4637,-316.8,-12.2497
202.6633,-316.8,-12.2517
202.8633,-316.8,-12.2562
203.0633,-316.8,-12.2526
203.2637,-316.8,-12.2526
203.4635,-316.8,-12.2445
203.6636,-316.8,-12.2511
203.8635,-316.8,-12.2459
204.0647,-316.8,-12.2513
204.2661,-316.8,-12.255
204.4669,-316.8,-12.2633
204.6672,-316.8,-12.2505
204.8677,-316.8,-12.2461
205.068,-316.8,-12.2523
205.2684,-316.8,-12.254
205.4688,-316.8,-12.2554
205.6682,-316.8,-12.2461
205.8685,-316.8,-12.2538
206.0687,-316.8,-12.2467
206.2694,-316.8,-12.2433
206.47,-316.8,-12.2562
206.6692,-316.8,-12.2428
206.8692,-316.8,-12.2469
207.0704,-316.8,-12.2412
207.2716,-316.8,-12.2443
207.4729,-316.8,-12.2477
207.6732,-316.8,-12.2487
207.8753,-316.8,-12.2461
208.0772,-316.8,-12.2469
208.2772,-316.8,-12.2526
208.4794,-316.8,-12.2497
208.6793,-316.8,-12.2523
208.8792,-316.8,-12.2523
209.0794,-316.8,-12.2505
209.2801,-316.8,-12.2479
209.4794,-316.8,-12.2521
209.6817,-316.8,-12.2493
209.8814,-316.8,-12.2534
210.0815,-316.8,-12.2501
210.282,-316.8,-12.2469
210.4831,-316.8,-12.2493
210.6822,-316.8,-12.243
210.8833,-316.8,-12.2449
211.0835,-316.8,-12.2469
211.2838,-316.8,-12.2433
211.4838,-316.8,-12.2396
211.6834,-316.8,-12.2451
211.8838,-316.8,-12.2408
212.0833,-316.8,-12.2352
212.2835,-316.8,-12.2449
212.4852,-316.8,-12.2422
212.6859,-316.8,-12.2435
212.8863,-316.8,-12.2418
213.088,-316.8,-12.2392
213.2878,-316.8,-12.2453
213.4881,-316.8,-12.2398
213.6886,-316.8,-12.2386
213.8895,-316.8,-12.2461
214.0892,-316.8,-12.2412
214.2905,-316.8,-12.238
214.4903,-316.8,-12.2339
214.6916,-316.8,-12.2344
214.8916,-316.8,-12.2315
215.0933,-316.8,-12.2374
215.2946,-316.8,-12.2335
215.4963,-316.8,-12.2426
215.6971,-316.8,-12.241
215.8975,-316.8,-12.2352
216.099,-316.8,-12.2301
216.2984,-316.8,-12.2344
216.4998,-316.8,-12.2257
216.6994,-316.8,-12.238
216.8999,-316.8,-12.2364
217.1002,-316.8,-12.2289
217.2999,-316.8,-12.2376
217.4993,-316.8,-12.2368
217.7004,-316.8,-12.2283
217.9009,-316.8,-12.2259
218.1007,-316.8,-12.2281
218.3017,-316.8,-12.2275
218.5013,-316.8,-12.2289
218.7016,-316.8,-12.2253
218.9026,-316.8,-12.2285
219.103,-316.8,-12.2339
219.3033,-316.8,-12.237
219.504,-316.8,-12.2319
219.7046,-316.8,-12.2342
219.9046,-316.8,-12.2283
220.1055,-316.8,-12.2287
220.3055,-316.8,-12.2259
220.5053,-316.8,-12.2299
220.7061,-316.8,-12.2208
220.9072,-316.8,-12.2261
221.1078,-316.8,-12.2291
221.3084,-316.8,-12.2269
221.5093,-316.8,-12.2285
221.7087,-316.8,-12.2261
221.9086,-316.8,-12.2251
222.1095,-316.8,-12.2277
222.3096,-316.8,-12.2224
222.5123,-316.8,-12.2253
222.7114,-316.8,-12.2261
222.9126,-316.8,-12.2212
223.1133,-316.8,-12.222
223.3137,-316.8,-12.2228
223.5134,-316.8,-12.2204
223.714,-316.8,-12.2172
223.9133,-316.8,-12.2184
224.1138,-316.8,-12.2196
224.3139,-316.8,-12.2263
224.514,-316.8,-12.2204
224.7139,-316.8,-12.2249
224.914,-316.8,-12.2186
225.114,-316.8,-12.2168
225.3148,-316.8,-12.2208
225.5146,-316.8,-12.2234
225.7148,-316.8,-12.2228
225.9155,-316.8,-12.2204
226.1171,-316.8,-12.2182
226.3164,-316.8,-12.2137
226.5165,-316.8,-12.2149
226.7171,-316.8,-12.2172
226.9165,-316.8,-12.2123
227.1173,-316.8,-12.2176
227.3182,-316.8,-12.2178
227.5182,-316.8,-12.2174
227.7177,-316.8,-12.2172
227.9195,-316.8,-12.2188
228.12,-316.8,-12.2224
228.3199,-316.8,-12.2115
228.5195,-316.8,-12.2158
228.7194,-316.8,-12.217
228.9195,-316.8,-12.2204
229.1209,-316.8,-12.2214
229.3215,-316.8,-12.2259
229.5217,-316.8,-12.2186
229.7216,-316.8,-12.2115
229.9231,-316.8,-12.2103
230.1224,-316.8,-12.2164
230.3225,-316.8,-12.2234
230.5235,-316.8,-12.2145
230.7238,-316.8,-12.218
230.9241,-316.8,-12.2111
231.1234,-316.8,-12.2208
231.324,-316.8,-12.2149
231.5239,-316.8,-12.2153
231.7238,-316.8,-12.2105
231.9246,-316.8,-12.2127
232.1253,-316.8,-12.2135
232.3249,-316.8,-12.2121
232.5257,-316.8,-12.2081
232.7259,-316.8,-12.2079
232.9277,-316.8,-12.2089
233.1273,-316.8,-12.2123
233.3266,-316.8,-12.218
233.5278,-316.8,-12.2151
233.7296,-316.8,-12.2127
233.9306,-316.8,-12.2073
234.1316,-316.8,-12.2052
234.3316,-316.8,-12.2093
234.5331,-316.8,-12.2079
234.7327,-316.8,-12.2042
234.9339,-316.8,-12.2113
235.1339,-316.8,-12.2022
235.3339,-316.8,-12.1992
235.535,-316.8,-12.2036
235.7355,-316.8,-12.2012
235.9361,-316.8,-12.2026
236.1359,-316.8,-12.1953
236.3378,-316.8,-12.1972
236.5375,-316.8,-12.2024
236.7386,-316.8,-12.2071
236.939,-316.8,-12.2024
237.1386,-316.8,-12.2016
237.3394,-316.8,-12.2022
237.5391,-316.8,-12.2048
237.7404,-316.8,-12.1986
237.9415,-316.8,-12.2
238.1417,-316.8,-12.2036
238.3416,-316.8,-12.199
238.5418,-316.8,-12.2024
238.7417,-316.8,-12.2026
238.9419,-316.8,-12.2028
239.1416,-316.8,-12.202
239.3418,-316.8,-12.1933
239.5417,-316.8,-12.1895
239.7436,-316.8,-12.1945
239.944,-316.8,-12.1961
240.1435,-316.8,-12.1963
240.3444,-316.8,-12.1976
240.5435,-316.8,-12.1899
240.7439,-316.8,-12.204
240.9435,-316.8,-12.198
241.1449,-316.8,-12.1901
241.3446,-316.8,-12.1852
241.545,-316.8,-12.1913
241.7453,-316.8,-12.1876
241.9447,-316.8,-12.1961
242.1449,-316.8,-12.1907
242.3445,-316.8,-12.1883
242.5463,-316.8,-12.1913
242.7474,-316.8,-12.1947
242.9486,-316.8,-12.1899
243.1495,-316.8,-12.1931
243.351,-316.8,-12.1927
243.5511,-316.8,-12.1915
243.7516,-316.8,-12.1931
243.9518,-316.8,-12.1862
244.1519,-316.8,-12.1893
244.3516,-316.8,-12.1903
244.5517,-316.8,-12.1909
244.7524,-316.8,-12.1919
244.9518,-316.8,-12.1872
245.1518,-316.8,-12.1852
245.3518,-316.8,-12.1899
245.5518,-316.8,-12.1889
245.7522,-316.8,-12.1838
245.9526,-316.8,-12.1862
246.1542,-316.8,-12.1919
246.354,-316.8,-12.1838
246.5542,-316.8,-12.183
246.7537,-316.8,-12.1852
246.9555,-316.8,-12.1893
247.1568,-316.8,-12.1834
247.3566,-316.8,-12.1832
247.5569,-316.8,-12.1832
247.7577,-316.8,-12.1818
247.9587,-316.8,-12.182
248.1585,-316.8,-12.182
248.359,-316.8,-12.1862
248.5605,-316.8,-12.1794
248.7608,-316.8,-12.1858
248.9611,-316.8,-12.1935
249.1605,-316.8,-12.1848
249.3631,-316.8,-12.1798
249.5629,-316.8,-12.18
249.7639,-316.8,-12.1834
249.9637,-316.8,-12.1745
250.1641,-316.8,-12.1773
250.3641,-316.8,-12.184
250.5642,-316.8,-12.1879
250.7643,-316.8,-12.1771
250.9642,-316.8,-12.1836
251.1639,-316.8,-12.1771
251.364,-316.8,-12.1753
251.5642,-316.8,-12.1887
251.7642,-316.8,-12.1822
251.9641,-316.8,-12.1832
252.1647,-316.8,-12.1893
252.3653,-316.8,-12.1818
252.5656,-316.8,-12.1769
252.7659,-316.8,-12.1721
252.9666,-316.8,-12.1824
253.168,-316.8,-12.1834
253.3681,-316.8,-12.1767
253.5697,-316.8,-12.1666
253.7698,-316.8,-12.1783
253.9705,-316.8,-12.1848
254.1697,-316.8,-12.1739
254.3706,-316.8,-12.1753
254.5707,-316.8,-12.1864
254.7713,-316.8,-12.1832
254.9708,-316.8,-12.1666
255.1711,-316.8,-12.1658
255.3716,-316.8,-12.1753
255.572,-316.8,-12.1713
255.7723,-316.8,-12.1775
255.9719,-316.8,-12.1745
256.1725,-316.8,-12.1743
256.3719,-316.8,-12.1786
256.5722,-316.8,-12.1757
256.7719,-316.8,-12.1662
256.972,-316.8,-12.1721
257.172,-316.8,-12.1761
257.3722,-316.8,-12.1763
257.572,-316.8,-12.1699
257.7734,-316.8,-12.1699
257.9736,-316.8,-12.1676
258.1738,-316.8,-12.1654
258.3739,-316.8,-12.1666
258.5749,-316.8,-12.1707
258.7752,-316.8,-12.165
258.9749,-316.8,-12.1731
259.1746,-316.8,-12.1697
259.3766,-316.8,-12.1686
259.5757,-316.8,-12.1713
259.7776,-316.8,-12.1723
259.9788,-316.8,-12.1688
260.1798,-316.8,-12.1699
260.3812,-316.8,-12.1672
260.5814,-316.8,-12.1624
260.7822,-316.8,-12.1638
260.9818,-316.8,-12.162
261.184,-316.8,-12.169
261.3841,-316.8,-12.168
261.5837,-316.8,-12.1672
261.7854,-316.8,-12.161
261.9876,-316.8,-12.1569
262.1869,-316.8,-12.1606
262.3883,-316.8,-12.1624
262.5878,-316.8,-12.1616
262.7886,-316.8,-12.1583
262.9887,-316.8,-12.1597
263.1896,-316.8,-12.1644
263.39,-316.8,-12.1646
263.5898,-316.8,-12.1658
263.7903,-316.8,-12.1589
263.9904,-316.8,-12.1634
264.1897,-316.8,-12.1648
264.3901,-316.8,-12.1626
264.5903,-316.8,-12.1646
264.7911,-316.8,-12.1602
264.9909,-316.8,-12.1579
265.1908,-316.8,-12.1654
265.392,-316.8,-12.1628
265.592,-316.8,-12.1541
265.7929,-316.8,-12.1585
265.9932,-316.8,-12.1583
266.1941,-316.8,-12.1614
266.3941,-316.8,-12.1622
266.5938,-316.8,-12.1543
266.7937,-316.8,-12.161
266.9943,-316.8,-12.1585
267.1938,-316.8,-12.1589
267.3945,-316.8,-12.1612
267.5938,-316.8,-12.1599
267.7942,-316.8,-12.1513
267.9956,-316.8,-12.1624
268.1949,-316.8,-12.1579
268.3977,-316.8,-12.1571
268.5983,-316.8,-12.1543
268.7991,-316.8,-12.1622
269.0004,-316.8,-12.1569
269.2008,-316.8,-12.15
269.4022,-316.8,-12.1581
269.6021,-316.8,-12.1504
269.8034,-316.8,-12.1529
270.0037,-316.8,-12.1616
270.2038,-316.8,-12.1525
270.4044,-316.8,-12.1492
270.6043,-316.8,-12.1531
270.8044,-316.8,-12.1418
271.0041,-316.8,-12.1513
271.2043,-316.8,-12.1547
271.4269,-316.219,-12.1484
271.6272,-314.885,-12.1496
271.8277,-313.552,-12.1472
272.0279,-312.219,-8.26463
272.2293,-310.886,-4.20837
272.4288,-309.553,-1.45702
272.6292,-308.22,0.422909
272.8288,-306.886,1.6983
273.0295,-305.554,2.50401
273.2296,-304.221,3.03253
273.4292,-302.888,3.35704
273.6292,-301.555,3.5386
273.8292,-300.222,3.63585
274.0301,-298.888,3.67346
274.2306,-297.519,3.67164
274.43,-296.22,3.64778
274.6301,-294.887,3.60471
274.8302,-293.554,3.55821
275.0304,-292.221,3.50746
275.2314,-290.851,3.45975
275.4319,-289.518,3.41527
275.6329,-288.185,3.3629
275.8328,-286.852,3.32266
276.0351,-285.485,3.28526
276.2349,-284.186,3.25251
276.4366,-282.851,3.21834
276.6362,-281.484,3.19933
276.8373,-280.151,3.16536
277.0368,-278.817,3.15
277.2379,-277.485,3.1227
277.4391,-276.152,3.10491
277.6391,-274.819,3.09237
277.8406,-273.485,3.07863
278.0399,-272.152,3.06285
278.2407,-270.819,3.06366
278.4409,-269.452,3.0487
278.6422,-268.119,3.0489
278.8422,-266.832,3.05072
279.0423,-266.799,3.05295
279.2435,-266.799,3.06932
279.4443,-266.799,3.04729
279.6448,-266.8,3.09581
279.8458,-266.8,3.08793
280.0471,-266.8,3.09723
280.2469,-266.8,3.09682
280.4473,-266.8,3.095
280.648,-266.8,3.09601
280.8486,-266.8,3.09662
281.048,-266.8,3.09642
281.2483,-266.8,3.0946
281.4494,-266.8,3.09096