File: Tinius-Olsen_Levitation_force/Preprocessed_measures/20231204_1527YBCOs1_sl9_2.txt.csv
Time(s),Displacement(mm),Force(N)
0.0,-266.268,2.91566
0.2398,-266.268,2.91465
0.4406,-266.268,2.9195
0.6406,-266.268,2.92052
0.8431,-266.268,2.91344
1.043,-266.268,2.9195
1.2426,-266.268,2.91809
1.4434,-266.268,2.9187
1.6444,-266.268,2.92517
1.8462,-266.268,2.92052
2.0467,-266.268,2.92072
2.2468,-266.268,2.91405
2.4463,-266.268,2.91566
2.6473,-266.268,2.92314
2.8476,-266.268,2.91809
3.048,-266.268,2.91667
3.2478,-266.268,2.92456
3.4488,-266.268,2.92436
3.6488,-266.268,2.91849
3.8487,-266.268,2.92254
4.0487,-266.268,2.91647
4.2484,-266.268,2.91283
4.4498,-266.268,2.91688
4.6507,-266.268,2.92173
4.8516,-266.268,2.92335
5.0529,-266.268,2.92638
5.2526,-266.11,2.94579
5.4738,-266.0,2.93993
5.6737,-266.0,2.92719
5.8739,-266.0,2.92375
6.0739,-266.0,2.92759
6.2737,-266.0,2.92375
6.4736,-266.0,2.93002
6.6739,-266.0,2.9187
6.8736,-266.0,2.92355
7.074,-266.0,2.9284
7.274,-266.0,2.93123
7.4737,-266.0,2.93244
7.6738,-266.0,2.93244
7.8751,-266.0,2.93629
8.0762,-266.0,2.9284
8.2766,-266.0,2.91688
8.4766,-266.0,2.92031
8.6769,-266.0,2.92031
8.8764,-266.0,2.92597
9.0782,-266.0,2.92294
9.2787,-266.0,2.92456
9.4793,-266.0,2.93325
9.6799,-266.0,2.93083
9.8793,-266.0,2.92678
10.0796,-266.0,2.93042
10.2809,-266.0,2.92537
10.4816,-266.0,2.92193
10.6815,-266.0,2.93083
10.8816,-266.0,2.92254
11.0815,-266.152,2.90212
11.3044,-267.217,2.91607
11.505,-268.585,2.90131
11.7067,-269.911,2.91485
11.9064,-270.0,2.8916
12.1064,-270.0,2.88817
12.3079,-270.0,2.88473
12.509,-270.0,2.88776
12.7089,-270.0,2.89241
12.9091,-270.0,2.89504
13.1089,-270.0,2.90009
13.3088,-270.0,2.89302
13.5088,-270.0,2.89403
13.7089,-270.0,2.89059
13.9087,-270.0,2.89059
14.1088,-270.0,2.89302
14.3092,-270.0,2.89342
14.5088,-270.0,2.89423
14.7089,-270.0,2.8916
14.9096,-270.0,2.89423
15.11,-270.0,2.89403
15.3099,-270.0,2.88513
15.5094,-270.0,2.89362
15.7102,-270.0,2.89484
15.9104,-270.0,2.89423
16.1108,-270.0,2.89787
16.3105,-270.0,2.89383
16.5109,-270.0,2.8916
16.7112,-270.0,2.88938
16.9109,-270.0,2.88675
17.1122,-270.0,2.891
17.3117,-270.0,2.88695
17.5117,-270.0,2.89423
17.7128,-270.0,2.89585
17.9143,-270.0,2.8912
18.114,-270.0,2.89039
18.3146,-270.0,2.89342
18.5151,-270.0,2.88817
18.7149,-270.0,2.89302
18.9146,-270.0,2.89504
19.1155,-270.0,2.88837
19.3172,-270.0,2.89383
19.5182,-270.0,2.90009
19.7185,-270.0,2.89989
19.9209,-270.0,2.9009
20.1216,-270.0,2.89241
20.3215,-270.0,2.88857
20.5228,-270.0,2.88877
20.7242,-270.0,2.89423
20.9238,-270.0,2.88554
21.1241,-270.0,2.88675
21.3238,-270.0,2.88877
21.5253,-270.0,2.88999
21.7258,-270.0,2.89342
21.9256,-270.0,2.89949
22.127,-270.0,2.89362
22.3266,-270.0,2.89221
22.5275,-270.0,2.88675
22.7286,-270.0,2.89282
22.9288,-270.0,2.89666
23.1288,-270.0,2.88776
23.3303,-270.0,2.89484
23.5295,-270.0,2.88817
23.7304,-270.0,2.8916
23.9317,-270.0,2.88958
24.1316,-270.0,2.8825
24.3342,-270.0,2.88513
24.534,-270.0,2.88574
24.7341,-270.0,2.88857
24.9338,-270.0,2.88837
25.1342,-270.0,2.88897
25.3338,-270.0,2.88352
25.5353,-270.0,2.88857
25.7348,-270.0,2.89282
25.935,-270.0,2.88675
26.1568,-270.58,2.8451
26.3581,-271.914,2.87927
26.5588,-273.248,2.86977
26.7585,-274.581,2.86714
26.9603,-275.914,2.85541
27.1595,-277.247,2.85339
27.3603,-278.58,2.84247
27.5596,-279.947,2.83398
27.7606,-281.246,2.82326
27.9612,-282.579,2.80325
28.1615,-283.946,2.79314
28.3618,-285.279,2.7707
28.5618,-286.612,2.75048
28.7617,-287.945,2.7246
28.9617,-289.278,2.70418
29.1617,-290.611,2.67061
29.3629,-291.945,2.63402
29.5644,-293.277,2.59944
29.7657,-294.61,2.55335
29.9669,-295.98,2.50341
30.1675,-297.313,2.44598
30.3678,-298.646,2.37158
30.5675,-299.978,2.29313
30.7679,-301.312,2.19386
30.9677,-302.645,2.08164
31.1708,-303.978,1.95588
31.3713,-305.313,1.79555
31.5717,-306.681,1.62228
31.774,-308.013,1.42777
31.9741,-309.347,1.18495
32.174,-310.679,0.916445
32.374,-312.013,0.600631
32.576,-313.345,0.233865
32.7755,-314.678,-0.192344
32.9766,-315.64,-1.33793
33.1772,-315.641,-1.59531
33.3787,-315.64,-1.37999
33.5788,-315.64,-1.26878
33.7794,-315.64,-1.18953
33.9805,-315.64,-1.13716
34.1806,-315.64,-1.09773
34.382,-315.64,-1.06377
34.5819,-315.64,-1.04193
34.783,-315.64,-1.01726
34.9832,-315.64,-1.00129
35.1839,-315.64,-0.975613
35.3842,-315.64,-0.957821
35.5856,-315.64,-0.947712
35.787,-315.64,-0.931335
35.9875,-315.64,-0.920012
36.1881,-315.64,-0.899794
36.3895,-315.64,-0.893324
36.5894,-315.64,-0.882203
36.7904,-315.64,-0.878766
36.9895,-315.64,-0.868859
37.1912,-315.64,-0.861985
37.3912,-315.64,-0.845001
37.5919,-315.64,-0.840957
37.7918,-315.64,-0.83287
37.9919,-315.64,-0.820537
38.1924,-315.64,-0.818919
38.3919,-315.64,-0.812247
38.592,-315.64,-0.806788
38.7942,-315.64,-0.7987
38.994,-315.64,-0.794455
39.1965,-315.64,-0.786367
39.3971,-315.64,-0.77828
39.598,-315.64,-0.775247
39.7985,-315.64,-0.768979
39.9993,-315.64,-0.762509
40.1996,-315.64,-0.760487
40.4022,-315.64,-0.750782
40.6017,-315.64,-0.753411
40.8032,-315.64,-0.742493
41.003,-315.64,-0.739864
41.2037,-315.64,-0.734203
41.404,-315.64,-0.731979
41.6036,-315.64,-0.71823
41.8054,-315.64,-0.714995
42.0047,-315.64,-0.71358
42.2046,-315.64,-0.710547
42.4062,-315.64,-0.70893
42.6075,-315.64,-0.710143
42.8071,-315.64,-0.704886
43.0078,-315.64,-0.701853
43.209,-315.64,-0.69235
43.4096,-315.64,-0.694372
43.6106,-315.64,-0.68952
43.811,-315.64,-0.684061
44.0111,-315.64,-0.682241
44.2116,-315.64,-0.677187
44.4119,-315.64,-0.671121
44.6119,-315.64,-0.673345
44.812,-315.64,-0.667684
45.0119,-315.64,-0.663842
45.2119,-315.64,-0.662225
45.4126,-315.64,-0.654339
45.6144,-315.64,-0.655957
45.8144,-315.64,-0.652924
46.014,-315.64,-0.647465
46.214,-315.64,-0.643826
46.4136,-315.64,-0.640793
46.614,-315.64,-0.643624
46.8139,-315.64,-0.636345
47.0152,-315.64,-0.635334
47.2161,-315.64,-0.633514
47.4172,-315.64,-0.628662
47.6184,-315.64,-0.630684
47.8182,-315.64,-0.627651
48.0179,-315.64,-0.627853
48.2186,-315.64,-0.619361
48.4201,-315.64,-0.619563
48.6211,-315.64,-0.616935
48.8209,-315.64,-0.608848
49.0223,-315.64,-0.60905
49.2232,-315.64,-0.608039
49.4231,-315.64,-0.605613
49.6238,-315.64,-0.606421
49.8239,-315.64,-0.603591
50.0242,-315.64,-0.596514
50.2244,-315.64,-0.599749
50.4244,-315.64,-0.59429
50.6244,-315.64,-0.593279
50.8244,-315.64,-0.592673
51.0243,-315.64,-0.593279
51.2243,-315.64,-0.584181
51.4243,-315.64,-0.582766
51.6242,-315.64,-0.58135
51.8244,-315.64,-0.578924
52.0251,-315.64,-0.577104
52.2261,-315.64,-0.57852
52.4257,-315.64,-0.575487
52.6283,-315.64,-0.571241
52.8283,-315.64,-0.567804
53.0295,-315.64,-0.569623
53.2297,-315.64,-0.564973
53.4311,-315.64,-0.56376
53.6311,-315.64,-0.562143
53.8311,-315.64,-0.561334
54.0321,-315.64,-0.559919
54.232,-315.64,-0.556886
54.4323,-315.64,-0.560323
54.632,-315.64,-0.553853
54.8331,-315.64,-0.552438
55.0327,-315.64,-0.552033
55.2337,-315.64,-0.544957
55.4341,-315.64,-0.544755
55.6351,-315.64,-0.545968
55.835,-315.64,-0.546372
56.0352,-315.64,-0.546776
56.236,-315.64,-0.54152
56.4369,-315.64,-0.535656
56.6382,-315.64,-0.537071
56.8392,-315.639,-0.540509
57.0403,-315.639,-0.532421
57.2398,-315.64,-0.532826
57.4402,-315.64,-0.53505
57.6403,-315.64,-0.525951
57.8399,-315.64,-0.532826
58.0398,-315.64,-0.526356
58.24,-315.64,-0.530399
58.4406,-315.64,-0.528175
58.6406,-315.64,-0.521705
58.8399,-315.64,-0.520492
59.0402,-315.64,-0.526962
59.2413,-315.64,-0.516853
59.4412,-315.64,-0.514224
59.6421,-315.64,-0.510989
59.8423,-315.64,-0.518875
60.0421,-315.64,-0.518875
60.2429,-315.64,-0.514629
60.4432,-315.64,-0.511394
60.6444,-315.64,-0.509776
60.8449,-315.64,-0.511192
61.0457,-315.64,-0.507754
61.2473,-315.64,-0.508159
61.4473,-315.64,-0.50553
61.6471,-315.64,-0.498656
61.8474,-315.64,-0.506339
62.0481,-315.64,-0.505328
62.2491,-315.64,-0.501487
62.4513,-315.64,-0.499667
62.6522,-315.64,-0.499263
62.8518,-315.64,-0.498252
63.0536,-315.64,-0.502902
63.2538,-315.64,-0.49441
63.4544,-315.64,-0.498252
63.6544,-315.64,-0.49805
63.8545,-315.64,-0.491175
64.0543,-315.64,-0.491984
64.2545,-315.64,-0.493399
64.454,-315.64,-0.488749
64.6542,-315.64,-0.489558
64.8541,-315.64,-0.48329
65.0543,-315.64,-0.48147
65.2545,-315.64,-0.484503
65.4545,-315.64,-0.490164
65.6546,-315.64,-0.489356
65.8546,-315.64,-0.482077
66.0541,-315.64,-0.48147
66.2539,-315.64,-0.481875
66.4545,-315.64,-0.477427
66.6552,-315.64,-0.477831
66.8568,-315.64,-0.476213
67.0582,-315.64,-0.475202
67.2589,-315.64,-0.473989
67.4602,-315.64,-0.479448
67.6603,-315.64,-0.467519
67.8616,-315.64,-0.474596
68.0619,-315.64,-0.470754
68.2623,-315.64,-0.468126
68.4638,-315.64,-0.468126
68.6634,-315.64,-0.464487
68.8645,-315.64,-0.466306
69.0638,-315.64,-0.462667
69.2639,-315.64,-0.462667
69.4643,-315.64,-0.468733
69.6641,-315.64,-0.465295
69.8643,-315.64,-0.45559
70.0639,-315.64,-0.459836
70.2642,-315.64,-0.459028
70.4653,-315.64,-0.458017
70.6653,-315.64,-0.457208
70.8656,-315.64,-0.454377
71.0656,-315.64,-0.453569
71.2657,-315.64,-0.453164
71.4656,-315.64,-0.449929
71.6656,-315.64,-0.451547
71.8666,-315.64,-0.450131
72.0663,-315.64,-0.454377
72.2667,-315.64,-0.450131
72.4677,-315.64,-0.450334
72.6675,-315.64,-0.451951
72.8684,-315.64,-0.452153
73.0684,-315.64,-0.452153
73.2689,-315.64,-0.440831
73.4695,-315.64,-0.442853
73.6692,-315.64,-0.443055
73.8692,-315.64,-0.438405
74.0691,-315.64,-0.438
74.2694,-315.64,-0.437191
74.4704,-315.64,-0.440426
74.6713,-315.64,-0.436989
74.8717,-315.64,-0.436989
75.0724,-315.64,-0.437596
75.2722,-315.64,-0.442246
75.4745,-315.64,-0.434159
75.6764,-315.64,-0.432541
75.8768,-315.64,-0.436383
76.0759,-315.64,-0.427082
76.2761,-315.64,-0.433754
76.4766,-315.64,-0.433148
76.678,-315.64,-0.435372
76.878,-315.64,-0.430924
77.0779,-315.64,-0.432743
77.2789,-315.64,-0.430519
77.4806,-315.64,-0.430317
77.6805,-315.64,-0.431732
77.8816,-315.64,-0.428093
78.0817,-315.64,-0.427284
78.281,-315.64,-0.426476
78.4816,-315.64,-0.424858
78.6813,-315.64,-0.421219
78.8818,-315.64,-0.426678
79.0816,-315.64,-0.429104
79.2827,-315.64,-0.421623
79.4828,-315.64,-0.419399
79.6836,-315.64,-0.420814
79.8845,-315.64,-0.423645
80.0845,-315.64,-0.421219
80.2847,-315.64,-0.417984
80.4846,-315.64,-0.419399
80.6859,-315.64,-0.416568
80.8885,-315.64,-0.415558
81.0892,-315.64,-0.415153
81.2894,-315.64,-0.409694
81.4901,-315.64,-0.414547
81.6907,-315.64,-0.416771
81.8915,-315.64,-0.413333
82.0931,-315.64,-0.406459
82.2934,-315.64,-0.402011
82.4935,-315.64,-0.405448
82.6944,-315.64,-0.408077
82.8946,-315.64,-0.404639
83.0943,-315.64,-0.407672
83.2954,-315.64,-0.404639
83.4958,-315.64,-0.411918
83.6954,-315.64,-0.41394
83.8961,-315.64,-0.409694
84.0975,-315.64,-0.405246
84.2975,-315.64,-0.406055
84.497,-315.64,-0.406459
84.6978,-315.64,-0.403224
84.8988,-315.64,-0.401607
85.0985,-315.64,-0.398574
85.2985,-315.64,-0.397765
85.4988,-315.64,-0.400394
85.6988,-315.64,-0.403426
85.8987,-315.64,-0.396754
86.0985,-315.64,-0.395541
86.2985,-315.64,-0.394732
86.5006,-315.64,-0.395541
86.7005,-315.64,-0.394328
86.9008,-315.64,-0.390689
87.1008,-315.64,-0.393519
87.3026,-315.64,-0.393721
87.5035,-315.64,-0.392508
87.7053,-315.64,-0.389071
87.9075,-315.64,-0.392913
88.1079,-315.64,-0.389071
88.3078,-315.64,-0.395339
88.5079,-315.64,-0.393115
88.7084,-315.64,-0.390082
88.9093,-315.64,-0.386038
89.1099,-315.64,-0.387454
89.3103,-315.64,-0.386645
89.5108,-315.64,-0.389476
89.7106,-315.64,-0.387454
89.9106,-315.64,-0.384825
90.1108,-315.64,-0.38523
90.3103,-315.64,-0.385836
90.511,-315.64,-0.387858
90.7117,-315.64,-0.380579
90.9117,-315.64,-0.380377
91.1113,-315.64,-0.382399
91.3115,-315.64,-0.374312
91.5124,-315.64,-0.382803
91.7124,-315.64,-0.378557
91.9124,-315.64,-0.376536
92.1124,-315.64,-0.378962
92.3124,-315.64,-0.372492
92.5124,-315.64,-0.372694
92.7124,-315.64,-0.376131
92.914,-315.64,-0.375322
93.1145,-315.64,-0.376738
93.3142,-315.64,-0.369055
93.5166,-315.64,-0.375322
93.7179,-315.64,-0.373503
93.9175,-315.64,-0.371481
94.1184,-315.64,-0.378557
94.3187,-315.64,-0.372694
94.5194,-315.64,-0.372087
94.7199,-315.64,-0.370268
94.9205,-315.64,-0.375727
95.1219,-315.64,-0.371885
95.3221,-315.64,-0.368044
95.5237,-315.64,-0.373705
95.7234,-315.64,-0.367033
95.924,-315.64,-0.36218
96.1243,-315.64,-0.361978
96.3246,-315.64,-0.362585
96.5251,-315.64,-0.365618
96.7259,-315.64,-0.367437
96.9253,-315.64,-0.363191
97.1269,-315.64,-0.366224
97.3283,-315.64,-0.362585
97.5284,-315.64,-0.370066
97.7291,-315.64,-0.368246
97.9295,-315.64,-0.370066
98.1296,-315.64,-0.367639
98.33,-315.64,-0.366022
98.5298,-315.64,-0.367639
98.7293,-315.64,-0.361978
98.9295,-315.64,-0.355306
99.1292,-315.64,-0.358743
99.33,-315.64,-0.359956
99.5298,-315.64,-0.362585
99.7292,-315.64,-0.356519
99.9308,-315.64,-0.364607
100.1303,-315.64,-0.358137
100.3305,-315.64,-0.359552
100.5311,-315.64,-0.364
100.7328,-315.64,-0.357732
100.9325,-315.64,-0.358945
101.1325,-315.64,-0.353689
101.3345,-315.64,-0.35753
101.5356,-315.64,-0.358541
101.736,-315.64,-0.353486
101.9365,-315.64,-0.352475
102.1366,-315.64,-0.357732
102.3372,-315.64,-0.353689
102.5382,-315.64,-0.350251
102.74,-315.64,-0.354497
102.9404,-315.64,-0.353284
103.1406,-315.64,-0.348432
103.3416,-315.64,-0.349443
103.5425,-315.64,-0.350858
103.7443,-315.64,-0.350049
103.9458,-315.64,-0.356317
104.1467,-315.64,-0.348634
104.3466,-315.64,-0.348027
104.5477,-315.64,-0.348836
104.7475,-315.64,-0.351464
104.948,-315.64,-0.344388
105.1474,-315.64,-0.350454
105.3477,-315.64,-0.349847
105.5487,-315.64,-0.342568
105.7499,-315.64,-0.346814
105.9511,-315.64,-0.345803
106.1513,-315.64,-0.347016
106.3523,-315.64,-0.346208
106.5525,-315.64,-0.342164
106.7524,-315.64,-0.343579
106.9527,-315.64,-0.344792
107.1522,-315.64,-0.341153
107.3525,-315.64,-0.340142
107.5526,-315.64,-0.33994
107.7537,-315.64,-0.344186
107.9535,-315.64,-0.338727
108.1549,-315.64,-0.33994
108.3548,-315.64,-0.334279
108.5549,-315.64,-0.337514
108.755,-315.64,-0.34176
108.9547,-315.64,-0.332863
109.1555,-315.64,-0.335087
109.3564,-315.64,-0.331044
109.5567,-315.64,-0.339131
109.7576,-315.64,-0.338322
109.9583,-315.64,-0.337514
110.1587,-315.64,-0.33529
110.3593,-315.64,-0.334683
110.5609,-315.64,-0.331852
110.7619,-315.64,-0.336503
110.9617,-315.64,-0.33347
111.1617,-315.64,-0.334885
111.3625,-315.64,-0.333066
111.5635,-315.64,-0.338322
111.7636,-315.64,-0.33347
111.9635,-315.64,-0.333268
112.1642,-315.64,-0.32882
112.3645,-315.64,-0.330235
112.565,-315.64,-0.330235
112.7655,-315.64,-0.32518
112.967,-315.64,-0.329224
113.1674,-315.64,-0.330841
113.3679,-315.64,-0.323158
113.5681,-315.64,-0.323361
113.7684,-315.64,-0.323765
113.9701,-315.64,-0.330235
114.1703,-315.64,-0.326191
114.3711,-315.64,-0.326191
114.5704,-315.64,-0.326798
114.7721,-315.64,-0.329224
114.973,-315.64,-0.324169
115.1726,-315.64,-0.326798
115.3738,-315.64,-0.318306
115.5749,-315.64,-0.326191
115.7745,-315.64,-0.326191
115.9744,-315.64,-0.323361
116.1756,-315.64,-0.321541
116.3767,-315.64,-0.320328
116.5765,-315.64,-0.317497
116.7767,-315.64,-0.31871
116.9767,-315.64,-0.322552
117.1764,-315.64,-0.316486
117.3777,-315.64,-0.320126
117.5779,-315.64,-0.324978
117.7779,-315.64,-0.320732
117.9783,-315.64,-0.317902
118.1794,-315.64,-0.318306
118.3819,-315.64,-0.315475
118.5817,-315.64,-0.324372
118.7842,-315.64,-0.318913
118.9847,-315.64,-0.319721
119.1868,-315.64,-0.316486
119.3877,-315.64,-0.31871
119.5883,-315.64,-0.314667
119.7888,-315.64,-0.314667
119.9885,-315.64,-0.320934
120.1897,-315.64,-0.312847
120.3914,-315.64,-0.316082
120.592,-315.64,-0.316891
120.7923,-315.64,-0.309612
120.9947,-315.64,-0.313049
121.1959,-315.64,-0.310218
121.3956,-315.64,-0.31224
121.5955,-315.64,-0.309612
121.7955,-315.64,-0.306781
121.9958,-315.64,-0.306984
122.1961,-315.64,-0.305366
122.3959,-315.64,-0.306984
122.5962,-315.64,-0.314667
122.7963,-315.64,-0.309612
122.9962,-315.64,-0.304557
123.1962,-315.64,-0.308197
123.3971,-315.64,-0.305164
123.597,-315.64,-0.302333
123.7973,-315.64,-0.308601
123.9981,-315.64,-0.304153
124.1977,-315.64,-0.308197
124.3974,-315.64,-0.305973
124.5988,-315.64,-0.305568
124.7998,-315.64,-0.300514
125.0009,-315.64,-0.300311
125.2004,-315.64,-0.302131
125.4017,-315.64,-0.300311
125.6036,-315.64,-0.300716
125.8036,-315.64,-0.311432
126.0048,-315.64,-0.304759
126.2061,-315.64,-0.307186
126.408,-315.64,-0.299907
126.6082,-315.64,-0.302535
126.8075,-315.64,-0.304759
127.0076,-315.64,-0.303344
127.2077,-315.64,-0.300918
127.4085,-315.64,-0.29829
127.6084,-315.64,-0.304962
127.8088,-315.64,-0.300716
128.0094,-315.64,-0.299503
128.2102,-315.64,-0.303142
128.4101,-315.64,-0.295257
128.6111,-315.64,-0.301727
128.8111,-315.64,-0.298087
129.0108,-315.64,-0.298896
129.211,-315.64,-0.297885
129.411,-315.64,-0.300716
129.6117,-315.64,-0.298492
129.8122,-315.64,-0.294852
130.0117,-315.64,-0.294246
130.212,-315.64,-0.293841
130.4128,-315.64,-0.297076
130.6132,-315.64,-0.296672
130.8137,-315.64,-0.297683
131.0147,-315.64,-0.295257
131.2146,-315.64,-0.296874
131.4146,-315.64,-0.289798
131.6149,-315.64,-0.293639
131.8161,-315.64,-0.28818
132.0161,-315.64,-0.289596
132.2158,-315.64,-0.288989
132.4182,-315.64,-0.285956
132.6181,-315.64,-0.286361
132.8189,-315.64,-0.289798
133.0187,-315.64,-0.283934
133.2191,-315.64,-0.284541
133.4193,-315.64,-0.285956
133.62,-315.64,-0.282923
133.8198,-315.64,-0.285754
134.0204,-315.64,-0.28535
134.2209,-315.64,-0.287574
134.4206,-315.64,-0.284136
134.6219,-315.64,-0.285552
134.8224,-315.64,-0.287978
135.0221,-315.64,-0.284136
135.2221,-315.64,-0.288382
135.422,-315.64,-0.284541
135.6223,-315.64,-0.279891
135.8221,-315.64,-0.282317
136.0233,-315.64,-0.283126
136.2228,-315.64,-0.286158
136.4234,-315.64,-0.286158
136.6235,-315.64,-0.279891
136.8242,-315.64,-0.28171
137.0251,-315.64,-0.280295
137.2248,-315.64,-0.280699
137.4249,-315.64,-0.278677
137.6254,-315.64,-0.285147
137.826,-315.64,-0.282923
138.0273,-315.64,-0.280093
138.2273,-315.64,-0.280093
138.4281,-315.64,-0.283934
138.6276,-315.64,-0.277262
138.8276,-315.64,-0.281104
139.029,-315.64,-0.274634
139.2289,-315.64,-0.273421
139.4293,-315.64,-0.27059
139.6309,-315.64,-0.279486
139.832,-315.64,-0.277869
140.033,-315.64,-0.276453
140.2341,-315.64,-0.279688
140.4338,-315.64,-0.278071
140.6343,-315.64,-0.27241
140.8339,-315.64,-0.275442
141.0336,-315.64,-0.276049
141.235,-315.64,-0.275038
141.435,-315.64,-0.279082
141.6353,-315.64,-0.277667
141.835,-315.64,-0.276049
142.0352,-315.64,-0.273016
142.2352,-315.64,-0.273825
142.4347,-315.64,-0.275038
142.6355,-315.64,-0.28353
142.8368,-315.64,-0.27524
143.0372,-315.64,-0.280295
143.237,-315.64,-0.275038
143.4373,-315.64,-0.276656
143.6374,-315.64,-0.281306
143.8369,-315.64,-0.275442
144.0374,-315.64,-0.272612
144.2373,-315.64,-0.276656
144.4383,-315.64,-0.276858
144.639,-315.64,-0.275645
144.8395,-315.64,-0.276049
145.039,-315.64,-0.274634
145.2388,-315.64,-0.270994
145.4399,-315.64,-0.272612
145.6416,-315.64,-0.269579
145.8428,-315.64,-0.273218
146.0427,-315.64,-0.271601
146.2441,-315.64,-0.276453
146.4438,-315.64,-0.266748
146.6441,-315.64,-0.268568
146.8448,-315.64,-0.264929
147.0452,-315.64,-0.269377
147.2449,-315.64,-0.266748
147.4457,-315.64,-0.267355
147.6485,-315.64,-0.265333
147.8491,-315.64,-0.264727
148.0493,-315.64,-0.266951
148.2496,-315.64,-0.263918
148.4513,-315.64,-0.258661
148.6512,-315.64,-0.263109
148.8514,-315.64,-0.264727
149.0523,-315.64,-0.265535
149.2521,-315.64,-0.265535
149.453,-315.64,-0.261896
149.6528,-315.64,-0.263109
149.8545,-315.64,-0.265333
150.0546,-315.64,-0.256235
150.2552,-315.64,-0.2623
150.4554,-315.64,-0.260481
150.6552,-315.64,-0.261492
150.8548,-315.64,-0.259672
151.0554,-315.64,-0.267355
151.2552,-315.64,-0.260885
151.4553,-315.64,-0.265131
151.6554,-315.64,-0.258863
151.856,-315.64,-0.2623
152.0575,-315.64,-0.258459
152.257,-315.639,-0.260481
152.4576,-315.64,-0.25765
152.6585,-315.64,-0.259065
152.8583,-315.64,-0.264727
153.0605,-315.64,-0.26594
153.26,-315.64,-0.260278
153.4602,-315.64,-0.253
153.6601,-315.64,-0.257246
153.8606,-315.64,-0.262098
154.0613,-315.64,-0.255426
154.2607,-315.64,-0.254011
154.461,-315.64,-0.259268
154.6617,-315.64,-0.254011
154.8618,-315.64,-0.258661
155.0617,-315.64,-0.253606
155.2622,-315.64,-0.251787
155.463,-315.64,-0.254213
155.663,-315.64,-0.259268
155.8651,-315.64,-0.256841
156.0654,-315.64,-0.263311
156.2657,-315.64,-0.257852
156.4671,-315.64,-0.255022
156.6676,-315.64,-0.255628
156.8678,-315.64,-0.253
157.0679,-315.64,-0.252595
157.2682,-315.64,-0.254617
157.4693,-315.64,-0.254819
157.669,-315.64,-0.25947
157.8704,-315.64,-0.251989
158.0711,-315.64,-0.252595
158.272,-315.64,-0.256033
158.472,-315.64,-0.256841
158.673,-315.64,-0.252798
158.873,-315.64,-0.252595
159.073,-315.64,-0.247945
159.273,-315.64,-0.24653
159.4744,-315.64,-0.254819
159.6744,-315.64,-0.256437
159.8756,-315.64,-0.255022
160.0751,-315.64,-0.251584
160.275,-315.64,-0.253404
160.475,-315.64,-0.251584
160.6771,-315.64,-0.250371
160.8781,-315.64,-0.250169
161.0777,-315.64,-0.247743
161.2791,-315.64,-0.25118
161.4799,-315.64,-0.253404
161.681,-315.64,-0.252595
161.8816,-315.64,-0.251989
162.0823,-315.64,-0.250776
162.2833,-315.64,-0.251382
162.483,-315.64,-0.251787
162.6829,-315.64,-0.250574
162.8829,-315.64,-0.24936
163.0829,-315.64,-0.249765
163.2831,-315.64,-0.246125
163.4831,-315.64,-0.244912
163.6844,-315.64,-0.250978
163.8838,-315.64,-0.248552
164.0839,-315.64,-0.248956
164.2846,-315.64,-0.239251
164.4857,-315.64,-0.244508
164.6858,-315.64,-0.243295
164.8868,-315.64,-0.242688
165.0873,-315.64,-0.241677
165.2889,-315.64,-0.24936
165.489,-315.64,-0.245115
165.6895,-315.64,-0.237836
165.889,-315.64,-0.243699
166.0894,-315.64,-0.24289
166.29,-315.64,-0.243699
166.4907,-315.64,-0.242688
166.6916,-315.64,-0.241273
166.8919,-315.64,-0.241475
167.0928,-315.64,-0.241677
167.2942,-315.64,-0.243295
167.4948,-315.64,-0.239251
167.6951,-315.64,-0.244104
167.8955,-315.64,-0.231972
168.0954,-315.64,-0.239251
168.2962,-315.64,-0.242082
168.4971,-315.64,-0.234601
168.6977,-315.64,-0.239251
168.8983,-315.64,-0.237836
169.0978,-315.64,-0.239049
169.2984,-315.64,-0.238442
169.499,-315.64,-0.236016
169.6997,-315.64,-0.235612
169.8996,-315.64,-0.237027
170.1004,-315.64,-0.23541
170.3014,-315.64,-0.236623
170.5008,-315.64,-0.237229
170.7037,-315.64,-0.231366
170.9032,-315.64,-0.234196
171.1031,-315.64,-0.233994
171.3052,-315.64,-0.237431
171.5055,-315.64,-0.232175
171.7054,-315.64,-0.229951
171.9064,-315.64,-0.230759
172.1069,-315.64,-0.236825
172.3068,-315.64,-0.23541
172.5076,-315.64,-0.231972
172.7074,-315.64,-0.23541
172.9076,-315.64,-0.238442
173.1076,-315.64,-0.232781
173.3078,-315.64,-0.234196
173.5084,-315.64,-0.227322
173.7093,-315.64,-0.230961
173.9095,-315.64,-0.231164
174.1092,-315.64,-0.232175
174.3093,-315.64,-0.230557
174.5093,-315.64,-0.228131
174.7093,-315.64,-0.231568
174.9091,-315.64,-0.222065
175.1093,-315.64,-0.219841
175.3117,-315.64,-0.221257
175.5115,-315.64,-0.226716
175.7113,-315.64,-0.225098
175.9127,-315.64,-0.224694
176.1127,-315.64,-0.216
176.3123,-315.64,-0.2253
176.5128,-315.64,-0.222874
176.7129,-315.64,-0.225907
176.9132,-315.64,-0.218628
177.1132,-315.64,-0.217819
177.3158,-315.64,-0.220852
177.5155,-315.64,-0.220246
177.7156,-315.64,-0.217819
177.9152,-315.64,-0.226716
178.1157,-315.64,-0.221054
178.3155,-315.64,-0.227727
178.5165,-315.64,-0.228131
178.7167,-315.64,-0.228333
178.9162,-315.64,-0.221459
179.1177,-315.64,-0.222672
179.3176,-315.64,-0.218224
179.5183,-315.64,-0.21883
179.7195,-315.64,-0.212967
179.9202,-315.64,-0.220448
180.1202,-315.64,-0.214787
180.3212,-315.64,-0.217819
180.5212,-315.64,-0.216404
180.7215,-315.64,-0.214584
180.921,-315.64,-0.214382
181.1232,-315.64,-0.225907
181.3231,-315.64,-0.221863
181.5233,-315.64,-0.219639
181.7242,-315.64,-0.220448
181.9253,-315.64,-0.221257
182.1251,-315.64,-0.213371
182.3267,-315.64,-0.22065
182.527,-315.64,-0.220043
182.7278,-315.64,-0.217617
182.9271,-315.64,-0.214382
183.1274,-315.64,-0.208519
183.3276,-315.64,-0.217011
183.5274,-315.64,-0.213169
183.7279,-315.64,-0.210541
183.9273,-315.64,-0.212563
184.1277,-315.64,-0.209934
184.3272,-315.64,-0.210338
184.5277,-315.64,-0.210945
184.7277,-315.64,-0.210743
184.9275,-315.64,-0.216606
185.1278,-315.64,-0.210338
185.3289,-315.64,-0.216808
185.5295,-315.64,-0.207306
185.7305,-315.64,-0.208114
185.9306,-315.64,-0.210945
186.1322,-315.64,-0.213978
186.3321,-315.64,-0.211147
186.5322,-315.64,-0.215595
186.7323,-315.64,-0.21418
186.9332,-315.64,-0.21236
187.1335,-315.64,-0.206901
187.3348,-315.64,-0.210945
187.5354,-315.64,-0.214989
187.7356,-315.64,-0.208317
187.9354,-315.64,-0.213169
188.1356,-315.64,-0.210136
188.3365,-315.64,-0.20771
188.536,-315.64,-0.200027
188.7366,-315.64,-0.209934
188.937,-315.64,-0.207104
189.137,-315.64,-0.218022
189.3371,-315.64,-0.20771
189.5386,-315.64,-0.206093
189.7383,-315.64,-0.203666
189.9392,-315.64,-0.20589
190.1399,-315.64,-0.203464
190.3409,-315.64,-0.207912
190.5404,-315.64,-0.20589
190.7417,-315.64,-0.208519
190.9415,-315.64,-0.20589
191.1422,-315.64,-0.207306
191.342,-315.64,-0.204475
191.5426,-315.64,-0.202251
191.7429,-315.64,-0.200229
191.9424,-315.64,-0.210541
192.1427,-315.64,-0.209732
192.3431,-315.64,-0.200027
192.5442,-315.64,-0.202453
192.7448,-315.64,-0.201847
192.9461,-315.64,-0.205082
193.1477,-315.64,-0.202251
193.3471,-315.64,-0.207104
193.5482,-315.64,-0.206497
193.7495,-315.64,-0.206497
193.9514,-315.64,-0.196994
194.1515,-315.64,-0.201038
194.3514,-315.64,-0.197399
194.551,-315.64,-0.199016
194.7528,-315.64,-0.203666
194.9526,-315.64,-0.202251
195.1532,-315.64,-0.201038
195.3533,-315.64,-0.201442
195.5531,-315.64,-0.20124
195.755,-315.64,-0.20124
195.9558,-315.64,-0.200836
196.1551,-315.64,-0.199825
196.3556,-315.64,-0.201847
196.5556,-315.64,-0.200431
196.7558,-315.64,-0.200836
196.9556,-315.64,-0.20124
197.1554,-315.64,-0.197601
197.3555,-315.64,-0.193557
197.5554,-315.64,-0.199016
197.7552,-315.64,-0.197803
197.9558,-315.64,-0.203869
198.1556,-315.64,-0.20589
198.3552,-315.64,-0.215798
198.5556,-315.64,-0.216
198.7564,-315.64,-0.21236
198.9589,-315.64,-0.212563
199.1587,-315.64,-0.210338
199.3591,-315.64,-0.207912
199.5604,-315.64,-0.208721
199.7608,-315.64,-0.211552
199.961,-315.64,-0.206093
200.1606,-315.64,-0.207306
200.3602,-315.64,-0.203464
200.5606,-315.352,-0.199218
200.7606,-314.951,-0.200836
200.9629,-314.551,0.913008
201.1632,-314.151,2.51149
201.3634,-313.751,3.25028
201.5643,-313.341,3.72279
201.7644,-312.941,3.99372
201.9649,-312.541,4.1585
202.1646,-312.141,4.26101
202.3649,-311.741,4.33703
202.5644,-311.341,4.37888
202.7644,-310.941,4.41326
202.9643,-310.542,4.43064
203.1658,-310.142,4.43732
203.3655,-309.742,4.43307
203.5653,-309.342,4.42054
203.7656,-308.942,4.40416
203.9656,-308.542,4.37585
204.1655,-308.142,4.34755
204.3666,-307.742,4.31884
204.5681,-307.343,4.2879
204.7691,-306.942,4.25009
204.9687,-306.532,4.2137
205.1692,-306.131,4.17306
205.3707,-305.732,4.13626
205.5709,-305.332,4.09441
205.7723,-304.931,4.0568
205.9738,-304.531,4.01758
206.175,-304.121,3.97835
206.3745,-303.721,3.9363
206.5744,-303.321,3.90071
206.775,-302.921,3.85927
206.9756,-302.521,3.82429
207.1754,-302.121,3.78506
207.3758,-301.722,3.76019
207.5757,-301.322,3.72117
207.7754,-300.922,3.68579
207.9762,-300.521,3.65506
208.1766,-300.121,3.6308
208.3773,-299.722,3.59562
208.5775,-299.322,3.56832
208.7789,-298.911,3.54345
208.9786,-298.511,3.51454
209.1787,-298.122,3.48603
209.3782,-297.722,3.46096
209.5782,-297.312,3.44034
209.78,-296.912,3.42477
209.9808,-296.512,3.39909
210.1803,-296.112,3.37786
210.382,-295.712,3.36108
210.583,-295.312,3.33965
210.7834,-294.913,3.31943
210.9841,-294.512,3.30245
211.1835,-294.112,3.28587
211.3836,-293.712,3.27677
211.5835,-293.311,3.2616
211.7844,-292.902,3.24118
211.9869,-292.502,3.23289
212.1883,-292.101,3.22016
212.3893,-291.691,3.20883
212.5919,-291.579,3.19185
212.7916,-291.579,3.18417
212.9915,-291.58,3.16273
213.1929,-291.58,3.16759
213.3926,-291.58,3.16476
213.5927,-291.58,3.16334
213.7938,-291.58,3.15869
213.9935,-291.58,3.16273
214.1934,-291.58,3.1597
214.3935,-291.58,3.15626
214.5947,-291.58,3.15364
214.7943,-291.58,3.15667
214.9946,-291.58,3.15525
215.1955,-291.58,3.15525
215.3965,-291.58,3.14919
215.5986,-291.58,3.15485
215.799,-291.58,3.14797
215.9986,-291.58,3.15364
216.1987,-291.58,3.1502
216.3995,-291.58,3.15485
216.6004,-291.58,3.15263
216.8006,-291.58,3.16152
217.0011,-291.58,3.14838
217.2018,-291.58,3.15182
217.4017,-291.58,3.1407
217.6036,-291.58,3.15202
217.8034,-291.58,3.14595
218.0052,-291.58,3.14575
218.2054,-291.58,3.13888
218.4078,-291.58,3.14434
218.6086,-291.58,3.14757
218.8102,-291.58,3.1502
219.0094,-291.58,3.1504
219.2112,-291.58,3.15485
219.4121,-291.58,3.14434
219.6113,-291.58,3.15202
219.8116,-291.458,3.14353
220.0123,-291.056,3.14595
220.2134,-290.655,3.14231
220.4155,-290.255,3.15121
220.6153,-289.855,3.14292
220.8164,-289.445,3.14393
221.0178,-289.045,3.12836
221.2178,-288.645,3.12432
221.4176,-288.245,3.11926
221.6192,-287.845,3.11279
221.8198,-287.445,3.10228
222.02,-287.045,3.09864
222.2212,-286.635,3.09399
222.4206,-286.246,3.08914
222.6205,-285.845,3.08166
222.822,-285.435,3.07579
223.0215,-285.035,3.06569
223.2224,-284.635,3.06245
223.4233,-284.235,3.06205
223.6236,-283.835,3.0578
223.8246,-283.435,3.04971
224.0261,-283.035,3.04506
224.229,-282.625,3.03718
224.4286,-282.225,3.03718
224.6287,-281.825,3.02889
224.8287,-281.424,3.02909
225.0298,-281.024,3.02201
225.2306,-280.614,3.01696
225.4307,-280.225,3.01352
225.632,-279.814,3.01575
225.8317,-279.414,3.01291
226.032,-279.015,3.01271
226.2322,-278.614,3.00119
226.4321,-278.215,3.002
226.6317,-277.815,3.00058
226.8316,-277.415,3.00058
227.0317,-277.015,2.99573
227.2316,-276.615,2.98764
227.4323,-276.215,2.98764
227.6328,-275.815,2.98805
227.8328,-275.415,2.98885
228.0346,-275.015,2.98744
228.2361,-274.605,2.98582
228.4355,-274.216,2.99007
228.6355,-273.805,2.98056
228.8357,-273.415,2.98663
229.0369,-273.004,2.97187
229.2382,-272.604,2.97369
229.4394,-272.204,2.98178
229.6396,-271.804,2.97875
229.8399,-271.405,2.98117
230.0416,-270.995,2.98724
230.2427,-270.595,2.98663
230.4427,-270.195,2.98016
230.644,-269.795,2.98178
230.8444,-269.395,2.98643
231.0464,-268.985,2.98825
231.2471,-268.585,2.98703
231.4467,-268.185,2.98299
231.6479,-267.785,2.99714
231.8489,-267.384,3.00078
232.0485,-266.984,2.99593
232.2503,-266.585,2.99997
232.4496,-266.185,3.00806
232.6499,-265.785,3.01312
232.8507,-265.385,3.01979
233.0522,-264.975,3.02403
233.2521,-264.575,3.0297
233.4515,-264.175,3.04264
233.6515,-263.775,3.04789
233.8518,-263.375,3.05315
234.0515,-262.975,3.0667
234.252,-262.575,3.07418
234.4523,-262.175,3.09197
234.6517,-261.776,3.1041
234.8518,-261.376,3.1132
235.0529,-260.976,3.13059
235.2532,-260.576,3.1409
235.4524,-260.176,3.15546
235.6536,-259.776,3.16597
235.855,-259.376,3.17931
236.0551,-258.976,3.19326
236.2551,-258.576,3.20479
236.4545,-258.176,3.22157
236.6561,-257.766,3.2333
236.8555,-257.366,3.23997
237.056,-256.966,3.25554
237.2555,-256.577,3.26747
237.4559,-256.166,3.27576
237.6574,-255.766,3.29355
237.8569,-255.366,3.30871
238.0573,-254.966,3.31801
238.2568,-254.566,3.32833
238.4572,-254.166,3.33116
238.6565,-253.766,3.3445
238.8565,-253.366,3.36108
239.0573,-252.967,3.37523
239.2573,-252.567,3.38817
239.4575,-252.167,3.39747
239.6597,-251.767,3.41243
239.8604,-251.357,3.42416
240.0605,-250.957,3.43387
240.2626,-250.557,3.44863
240.4632,-250.157,3.45671
240.664,-249.757,3.46521
240.864,-249.356,3.47693
241.0638,-248.957,3.48057
241.2638,-248.557,3.4921
241.4638,-248.157,3.48825
241.6638,-247.756,3.47996
241.8636,-247.356,3.48381
242.0635,-246.956,3.47936
242.2638,-246.556,3.4832
242.4642,-246.157,3.48259
242.6638,-245.757,3.48583
242.8638,-245.357,3.48583
243.0643,-244.947,3.48886
243.2648,-244.546,3.48987
243.4674,-244.147,3.4925
243.6668,-243.747,3.49432
243.8668,-243.347,3.49755
244.0692,-242.946,3.49189
244.269,-242.546,3.49877
244.4699,-242.146,3.49796
244.6697,-241.736,3.50018
244.8695,-241.337,3.50301
245.0697,-240.947,3.50524
245.2696,-240.547,3.50807
245.4695,-240.137,3.50524
245.6704,-239.747,3.50564
245.8704,-239.337,3.50908
246.0695,-238.937,3.51434
246.271,-238.537,3.51616
246.4719,-238.137,3.51878
246.6718,-237.737,3.51373
246.8727,-237.338,3.50989
247.0735,-236.937,3.51858
247.2764,-236.527,3.51777
247.4768,-236.128,3.5204
247.6795,-235.717,3.51333
247.8803,-235.317,3.52121
248.0815,-234.918,3.52343
248.2824,-234.517,3.51636
248.4827,-234.117,3.50948
248.6839,-233.717,3.51353
248.8838,-233.317,3.51272
249.0854,-232.907,3.51434
249.2854,-232.508,3.51292
249.4847,-232.107,3.50807
249.6866,-231.707,3.51151
249.8873,-231.308,3.51049
250.0867,-230.908,3.51636
250.2873,-230.507,3.50807
250.4896,-230.107,3.51009
250.6912,-229.697,3.51049
250.8907,-229.297,3.51454
251.0917,-228.897,3.50969
251.2921,-228.497,3.51231
251.4916,-228.097,3.50908
251.6939,-227.697,3.51312
251.8947,-227.288,3.50605
252.0959,-226.887,3.50807
252.2958,-226.487,3.50989
252.4966,-226.088,3.51029
252.6963,-225.688,3.5107
252.8959,-225.288,3.50504
253.0963,-224.888,3.50807
253.2957,-224.488,3.50847
253.496,-224.088,3.51009
253.6975,-223.688,3.50544
253.8983,-223.278,3.50969
254.0985,-222.888,3.50584
254.2992,-222.488,3.50928
254.499,-222.088,3.50443
254.6993,-221.678,3.50059
254.8996,-221.279,3.50342
255.0999,-220.878,3.50766
255.2998,-220.479,3.50584
255.5004,-220.079,3.50281
255.7006,-219.679,3.50342
255.9009,-219.278,3.50402
256.1009,-218.878,3.50463
256.3012,-218.478,3.50402
256.5006,-218.078,3.50322
256.7015,-217.678,3.50221
256.9019,-217.669,3.50322
257.1016,-217.669,3.50342
257.3044,-217.67,3.49108
257.5054,-217.907,3.50119
257.7049,-218.307,3.5014
257.9049,-218.707,3.49897
258.1059,-219.107,3.50483
258.3067,-219.507,3.5016
258.5056,-219.907,3.50261
258.7069,-220.307,3.5018
258.9069,-220.707,3.50605
259.107,-221.107,3.50059
259.307,-221.507,3.50362
259.5085,-221.917,3.50483
259.7083,-222.307,3.50322
259.9081,-222.718,3.50261
260.1082,-223.107,3.50524
260.3086,-223.507,3.50423
260.5096,-223.917,3.49917
260.7091,-224.317,3.50544
260.9106,-224.717,3.50443
261.1112,-225.118,3.50605
261.3116,-225.518,3.50423
261.5117,-225.918,3.50362
261.7123,-226.49,3.49958
261.9123,-228.486,3.5016
262.1121,-230.485,3.50322
262.3117,-232.484,3.45813
262.5118,-234.484,3.5018
262.7131,-236.535,3.5018
262.914,-238.534,3.50544
263.1141,-240.534,3.50504
263.3141,-242.533,3.50625
263.5161,-244.537,3.5109
263.7173,-246.536,3.50281
263.918,-248.535,3.49574
264.1177,-250.535,3.48502
264.3177,-252.534,3.47713
264.5192,-254.585,3.46136
264.72,-256.585,3.45651
264.9206,-258.585,3.43488
265.1197,-260.584,3.36977
265.3209,-262.583,3.30386
265.5212,-264.582,3.23977
265.7223,-266.634,3.18194
265.923,-267.336,3.11138
266.1228,-267.336,3.04931
266.323,-267.335,2.9927
266.5244,-267.335,2.984
266.7242,-267.335,2.99148
266.9241,-267.335,2.9935
267.1245,-267.335,2.9929
267.324,-267.335,2.99027
267.524,-267.335,2.99108
267.7262,-267.335,2.99027
267.9277,-267.335,2.99249
268.1284,-267.335,2.98926
268.33,-267.335,2.98825
268.5313,-267.335,2.98906
268.7341,-267.335,2.98845
268.9346,-267.335,2.99209
269.1352,-267.335,2.99553
269.3364,-267.335,2.99249
269.5364,-267.335,2.99532
269.7364,-267.335,2.9935
269.9364,-267.335,2.9929
270.136,-267.335,2.9933
270.3377,-267.335,3.00078
270.538,-267.335,2.9931
270.7383,-267.335,2.99452
270.9388,-267.335,2.9929
271.1405,-267.335,2.9933
271.3403,-267.335,2.99047
271.542,-267.335,2.99148
271.7423,-267.335,3.002
271.9431,-267.335,2.99148
272.1436,-267.335,2.98906
272.3441,-267.335,2.98703
272.5441,-267.335,2.98764
272.7441,-267.335,2.98987
272.944,-267.335,2.98562
273.1441,-267.335,2.98663
273.3455,-267.335,2.98481
273.5464,-267.335,2.98501
273.7462,-267.335,2.98683
273.9464,-267.335,2.98865
274.146,-267.335,2.99168
274.3474,-267.335,2.99088
274.5481,-267.335,2.99512
274.7484,-267.335,2.99997
274.948,-267.335,2.99209
275.0487,-267.335,2.99209