File: Tinius-Olsen_Levitation_force/Preprocessed_measures/20231204_1223cut1_highN_1.txt.csv
Time(s),Displacement(mm),Force(N)
0.0,-281.242,2.81053
0.345,-281.242,2.80992
0.6446,-281.242,2.80749
0.9455,-281.242,2.81214
1.2464,-281.242,2.80729
1.5463,-281.242,2.81032
1.8489,-281.242,2.80608
2.1484,-281.242,2.80446
2.448,-281.242,2.80507
2.7505,-281.242,2.81174
3.0511,-281.242,2.8083
3.3516,-281.242,2.81194
3.6535,-281.242,2.80507
3.9532,-281.242,2.81214
4.2544,-281.242,2.80749
4.5564,-281.242,2.80668
4.8582,-281.242,2.80527
5.1606,-281.242,2.8085
5.4614,-281.242,2.8172
5.7619,-281.242,2.80345
6.0629,-281.242,2.80507
6.3628,-281.242,2.81538
6.6649,-281.242,2.81255
6.9644,-281.242,2.81012
7.2659,-281.242,2.80203
7.5661,-281.242,2.8085
7.8672,-281.242,2.80406
8.1675,-281.242,2.80426
8.4691,-281.242,2.80588
8.7681,-281.242,2.81356
9.0708,-281.242,2.81174
9.3724,-281.242,2.8172
9.6726,-281.242,2.81457
9.9724,-281.242,2.8172
10.2722,-281.242,2.81659
10.5733,-281.242,2.81437
10.8733,-281.242,2.81356
11.174,-281.242,2.81942
11.4749,-281.242,2.81861
11.7767,-281.242,2.82144
12.0772,-281.242,2.81356
12.3786,-281.242,2.81619
12.6799,-281.242,2.81801
12.9811,-281.242,2.82205
13.2803,-281.242,2.80628
13.5805,-281.242,2.81962
13.8806,-281.242,2.8176
14.1827,-281.097,2.84065
14.5053,-280.999,2.82771
14.8068,-280.999,2.82973
15.109,-280.999,2.8263
15.4087,-281.0,2.82771
15.7099,-281.0,2.82407
16.0099,-281.0,2.82508
16.3117,-281.0,2.82832
16.6132,-281.0,2.8269
16.9133,-281.0,2.83398
17.2136,-281.0,2.83176
17.5141,-281.0,2.83277
17.8136,-281.0,2.82812
18.1146,-281.0,2.8263
18.4164,-281.0,2.83641
18.7189,-281.0,2.83721
19.0185,-281.0,2.83317
19.3184,-281.0,2.8455
19.6185,-281.0,2.84085
19.9198,-281.0,2.836
20.2205,-281.0,2.83843
20.5221,-281.0,2.83721
20.824,-281.0,2.84025
21.1245,-281.0,2.83034
21.4261,-281.0,2.84348
21.7259,-281.0,2.84591
22.0272,-281.0,2.83701
22.3264,-281.0,2.84146
22.6281,-281.0,2.84146
22.9293,-281.0,2.84207
23.2307,-281.0,2.83984
23.5334,-281.0,2.84652
23.8336,-281.0,2.84166
24.1347,-281.0,2.84308
24.4348,-281.0,2.84429
24.7348,-281.0,2.83802
25.0353,-281.0,2.85076
25.3367,-281.0,2.84005
25.6376,-281.0,2.84389
25.9384,-281.0,2.83782
26.2387,-281.0,2.84611
26.5388,-281.0,2.83924
26.8386,-281.0,2.84085
27.1386,-281.0,2.8455
27.4396,-281.0,2.83418
27.7405,-281.0,2.84631
28.0417,-281.0,2.83701
28.3433,-281.0,2.84348
28.646,-281.0,2.84631
28.9489,-281.0,2.84085
29.2495,-281.0,2.84571
29.5501,-281.0,2.84631
29.8502,-281.0,2.84368
30.1502,-281.0,2.8455
30.4495,-281.0,2.8453
30.7512,-281.0,2.84368
31.052,-281.0,2.84995
31.3541,-281.0,2.85197
31.658,-281.0,2.84207
31.9592,-281.0,2.84773
32.2612,-281.0,2.83843
32.5617,-281.0,2.84672
32.8639,-281.0,2.84652
33.1646,-281.0,2.84106
33.4655,-281.0,2.85218
33.766,-281.0,2.84935
34.0661,-281.0,2.84652
34.3656,-281.0,2.8548
34.6682,-281.0,2.8453
34.9693,-281.0,2.84894
35.2695,-281.0,2.84975
35.5708,-281.0,2.85743
35.8708,-281.0,2.85137
36.1716,-281.0,2.85177
36.4744,-281.0,2.86471
36.7746,-281.0,2.84874
37.0761,-281.0,2.84935
37.3764,-281.0,2.85197
37.6763,-281.0,2.8451
37.9762,-281.0,2.84935
38.2773,-280.773,2.86047
38.5793,-280.167,2.86936
38.8789,-279.562,2.87988
39.18,-278.957,2.90717
39.4818,-278.362,2.92638
39.7833,-277.757,2.94255
40.0836,-277.152,2.9743
40.3853,-276.547,2.98764
40.6847,-275.952,3.00806
40.9846,-275.335,3.01999
41.285,-272.492,3.10329
41.585,-269.467,3.21975
41.8866,-266.443,3.31094
42.1872,-263.469,3.40576
42.4886,-260.444,3.45024
42.7903,-257.419,3.4458
43.0905,-254.445,3.4646
43.39,-251.421,3.4743
43.6915,-248.447,3.48118
43.9909,-245.422,3.47531
44.291,-242.448,3.47451
44.5909,-239.423,3.47107
44.8919,-236.603,3.47188
45.1944,-236.568,3.47633
45.4956,-236.568,3.47248
45.7963,-236.569,3.47309
46.0974,-236.827,3.45853
46.3984,-237.422,3.47248
46.7003,-238.027,3.46682
47.0014,-240.196,3.46055
47.3023,-243.169,3.46986
47.6019,-246.198,3.46945
47.9025,-249.222,3.46339
48.2031,-252.196,3.46561
48.5035,-255.221,3.45348
48.8028,-258.194,3.43771
49.1055,-261.22,3.41951
49.4068,-264.248,3.40839
49.7071,-267.273,3.35784
50.0068,-270.247,3.24664
50.3077,-273.272,3.14029
50.6088,-276.246,3.0392
50.909,-279.27,2.92072
51.209,-282.244,2.81922
51.509,-285.269,2.77595
51.8088,-288.242,2.72439
52.1099,-291.267,2.64453
52.411,-292.533,2.58954
52.7131,-292.533,2.55961
53.0159,-292.533,2.57316
53.3161,-292.532,2.57276
53.616,-292.532,2.57053
53.9175,-292.532,2.5677
54.2197,-292.532,2.57902
54.5215,-292.532,2.5768
54.8226,-292.532,2.57215
55.123,-292.532,2.57397
55.4235,-292.532,2.58347
55.7236,-292.532,2.58569
56.0248,-292.532,2.57559
56.3267,-292.532,2.58145
56.6275,-292.532,2.58468
56.9282,-292.532,2.57316
57.2279,-292.532,2.57316
57.5294,-292.532,2.58367
57.8309,-292.532,2.58388
58.1314,-292.532,2.58185
58.4335,-292.532,2.58084
58.7341,-292.532,2.58893
59.0343,-292.532,2.58327
59.3346,-292.532,2.58367
59.6354,-292.532,2.58893
59.9364,-292.532,2.58812
60.2365,-292.532,2.57255
60.5369,-292.532,2.57276
60.8366,-292.532,2.58832
61.1384,-292.532,2.58792
61.4411,-292.532,2.58388
61.7422,-292.532,2.58024
62.0427,-292.532,2.58529
62.3437,-292.532,2.58327
62.6442,-292.532,2.58286
62.9462,-292.532,2.58569
63.2462,-292.532,2.58165
63.5473,-292.532,2.58064
63.8489,-292.532,2.5766
64.1508,-292.532,2.57741
64.4529,-292.532,2.57276
64.7543,-292.532,2.57498
65.0548,-292.532,2.58994
65.3557,-292.532,2.58468
65.6554,-292.532,2.58529
65.955,-292.532,2.5772
66.2558,-292.532,2.58691
66.5563,-292.532,2.58367
66.8566,-292.532,2.57821
67.1583,-292.532,2.57801
67.4592,-292.532,2.58388
67.7609,-292.532,2.58226
68.0611,-292.532,2.58246
68.3616,-292.532,2.58772
68.661,-292.532,2.58731
68.961,-292.532,2.57862
69.2613,-292.532,2.58327
69.5629,-292.532,2.57741
69.8646,-292.532,2.57821
70.1654,-292.532,2.58307
70.4679,-292.532,2.58125
70.7671,-292.532,2.58913
71.0673,-292.532,2.57963
71.3685,-292.532,2.58226
71.6697,-292.532,2.59095
71.9699,-292.532,2.58853
72.2715,-292.532,2.58812
72.571,-292.532,2.59156
72.8716,-292.532,2.59014
73.1715,-292.532,2.58671
73.4719,-292.532,2.5859
73.7722,-292.532,2.59216
74.0738,-292.532,2.59439
74.3735,-292.532,2.58671
74.6737,-292.532,2.59196
74.973,-292.532,2.58024
75.2732,-292.532,2.58307
75.5746,-292.532,2.58711
75.8768,-292.532,2.58408
76.1765,-292.532,2.58529
76.4793,-292.532,2.5863
76.7817,-292.532,2.58792
77.0817,-292.532,2.58307
77.3819,-292.532,2.58145
77.6833,-292.532,2.58388
77.9845,-292.532,2.59115
78.2857,-292.532,2.58206
78.5869,-292.532,2.58731
78.8878,-292.532,2.59601
79.1887,-292.532,2.59985
79.489,-292.532,2.59115
79.7901,-292.532,2.59014
80.0917,-292.532,2.58994
80.3916,-292.532,2.59257
80.6914,-292.532,2.58509
80.992,-292.532,2.58448
81.2927,-292.532,2.58468
81.594,-292.532,2.59176
81.8935,-292.532,2.59176
82.1941,-292.532,2.5863
82.4942,-292.532,2.59055
82.7946,-292.532,2.59641
83.0949,-292.532,2.58327
83.3959,-292.532,2.5865
83.6968,-292.532,2.59803
83.9962,-292.532,2.58691
84.2988,-292.532,2.58873
84.5988,-292.532,2.58792
84.9009,-292.532,2.59398
85.2035,-292.532,2.58933
85.5045,-292.532,2.58994
85.806,-292.532,2.59338
86.1052,-292.532,2.59762
86.406,-292.532,2.59823
86.7051,-292.532,2.59095
87.0058,-292.532,2.59237
87.3071,-292.532,2.59196
87.6083,-292.532,2.58832
87.9082,-292.532,2.59095
88.2093,-292.532,2.58954
88.51,-292.532,2.59479
88.8094,-292.532,2.58671
89.1095,-292.532,2.59055
89.4092,-292.532,2.59661
89.712,-292.532,2.59419
90.0125,-292.532,2.5865
90.315,-292.532,2.58731
90.6152,-292.532,2.58873
90.9165,-292.532,2.5863
91.2197,-292.532,2.58347
91.5201,-292.532,2.59297
91.8212,-292.532,2.59136
92.1229,-292.532,2.58206
92.4228,-292.532,2.58832
92.7235,-292.532,2.59156
93.0245,-292.532,2.59641
93.3252,-292.532,2.58933
93.6264,-292.532,2.6043
93.928,-292.532,2.59803
94.229,-292.532,2.59621
94.5296,-292.532,2.59702
94.8295,-292.532,2.59115
95.1319,-292.532,2.59035
95.4315,-292.532,2.58549
95.7316,-292.532,2.58691
96.0317,-292.532,2.5863
96.3323,-292.532,2.58468
96.6351,-292.532,2.59095
96.937,-292.532,2.59035
97.2363,-292.532,2.59742
97.5375,-292.532,2.59237
97.8383,-292.532,2.595
98.1393,-292.532,2.58691
98.4409,-292.532,2.58994
98.7441,-292.532,2.58751
99.0443,-292.532,2.58751
99.3444,-292.532,2.58509
99.6461,-292.532,2.58691
99.9465,-292.532,2.59641
100.2474,-292.532,2.59661
100.5492,-292.532,2.59884
100.849,-292.532,2.59439
101.1491,-292.532,2.58812
101.4506,-292.532,2.60612
101.7532,-292.532,2.59742
102.0533,-292.532,2.59338
102.357,-292.532,2.59803
102.6571,-292.532,2.59115
102.9578,-292.532,2.59621
103.2593,-292.532,2.59095
103.5612,-292.532,2.60389
103.8624,-292.532,2.60106
104.1627,-292.532,2.60086
104.4642,-292.532,2.59722
104.7639,-292.532,2.58954
105.0651,-292.532,2.58388
105.3648,-292.532,2.58731
105.6654,-292.532,2.58367
105.9661,-292.532,2.58832
106.2671,-292.532,2.59196
106.569,-292.532,2.5954
106.8696,-292.532,2.59398
107.1715,-292.532,2.58489
107.4718,-292.532,2.59702
107.7725,-292.532,2.60227
108.0725,-292.532,2.60187
108.3734,-292.532,2.59439
108.676,-292.532,2.60288
108.9766,-292.532,2.59277
109.2781,-292.532,2.59216
109.5779,-292.532,2.59176
109.878,-292.532,2.59176
110.1802,-292.532,2.59783
110.4796,-292.532,2.59338
110.7797,-292.532,2.5958
111.0812,-292.532,2.60167
111.3824,-292.532,2.60005
111.6817,-292.532,2.60794
111.9821,-292.532,2.60652
112.2818,-292.532,2.60288
112.5822,-292.532,2.59702
112.882,-292.532,2.60308
113.1839,-292.532,2.59884
113.4852,-292.532,2.59985
113.7871,-292.532,2.60268
114.0865,-292.532,2.59682
114.3885,-292.532,2.6045
114.6897,-292.532,2.59378
114.9919,-292.532,2.59439
115.2927,-292.532,2.59661
115.5942,-292.532,2.59985
115.8944,-292.532,2.60713
116.1941,-292.532,2.59863
116.4957,-292.532,2.60005
116.7987,-292.532,2.59641
117.1015,-292.532,2.595
117.4012,-292.532,2.58792
117.7024,-292.532,2.59924
118.0027,-292.532,2.58812
118.3048,-292.532,2.59277
118.6063,-292.532,2.5952
118.9066,-292.532,2.5952
119.2102,-292.532,2.59601
119.5122,-292.532,2.59035
119.8135,-292.532,2.58974
120.1152,-292.532,2.59783
120.4157,-292.532,2.58428
120.717,-292.532,2.59419
121.0181,-292.532,2.60369
121.318,-292.532,2.58772
121.6194,-292.532,2.5958
121.9189,-292.532,2.59641
122.2206,-292.532,2.59055
122.5223,-292.532,2.58711
122.8218,-292.532,2.5954
123.1221,-292.532,2.59682
123.4229,-292.532,2.58873
123.7227,-292.532,2.59378
124.0227,-292.532,2.59722
124.3237,-292.532,2.59358
124.6257,-292.532,2.59479
124.9257,-292.532,2.59965
125.2273,-292.532,2.59014
125.5291,-292.532,2.59035
125.8295,-292.532,2.59783
126.129,-292.532,2.60025
126.4292,-292.532,2.58428
126.7292,-292.532,2.60167
127.0303,-292.532,2.59661
127.3316,-292.532,2.59035
127.632,-292.532,2.60086
127.9323,-292.532,2.60167
128.2324,-292.532,2.59702
128.5335,-292.532,2.59419
128.8348,-292.532,2.59216
129.1354,-292.532,2.60126
129.4361,-292.532,2.59682
129.7362,-292.532,2.6047
130.0388,-292.532,2.6049
130.3391,-292.532,2.60571
130.6392,-292.532,2.60329
130.9408,-292.532,2.59783
131.2422,-292.532,2.59924
131.542,-292.532,2.595
131.8418,-292.532,2.59762
132.1429,-292.532,2.59156
132.4448,-292.532,2.59762
132.7474,-292.532,2.59985
133.0489,-292.532,2.59358
133.3496,-292.532,2.6051
133.6514,-292.532,2.59722
133.9524,-292.532,2.59722
134.2531,-292.532,2.60369
134.5531,-292.532,2.6045
134.8565,-292.532,2.59702
135.1582,-292.532,2.6047
135.4616,-292.532,2.59884
135.7827,-292.0,2.59621
136.0829,-292.0,2.58873
136.3841,-292.0,2.62815
136.6843,-292.0,2.62411
136.9845,-292.0,2.62755
137.2839,-292.0,2.6233
137.5845,-292.0,2.61804
137.8851,-292.0,2.63361
138.1877,-292.0,2.62674
138.488,-292.0,2.6235
138.7898,-292.0,2.62755
139.0903,-292.0,2.6322
139.3921,-292.0,2.62532
139.6937,-292.0,2.62189
139.996,-292.0,2.61906
140.2971,-292.0,2.61885
140.5981,-292.0,2.62532
140.8978,-292.0,2.614
141.1989,-292.0,2.61724
141.4997,-292.0,2.62451
141.8019,-292.0,2.61845
142.1041,-292.0,2.61461
142.4053,-292.0,2.61986
142.7051,-292.0,2.61946
143.0055,-292.0,2.62371
143.305,-292.0,2.62836
143.6059,-292.0,2.6227
143.9074,-292.0,2.61906
144.2079,-292.0,2.63058
144.5105,-292.0,2.62027
144.8122,-292.0,2.6142
145.1122,-292.0,2.61562
145.4125,-292.0,2.61339
145.7129,-292.0,2.61623
146.0136,-292.0,2.61441
146.3147,-292.0,2.61663
146.6159,-292.0,2.61259
146.9171,-292.0,2.61198
147.2188,-292.0,2.62391
147.5205,-292.0,2.62451
147.8214,-292.0,2.63321
148.1229,-292.0,2.62553
148.4247,-292.0,2.62249
148.7242,-292.0,2.62775
149.0276,-292.0,2.62593
149.3282,-292.0,2.62553
149.6301,-292.0,2.61804
149.9328,-292.0,2.62088
150.2336,-292.0,2.62047
150.534,-292.0,2.61724
150.8356,-292.0,2.62088
151.1357,-292.0,2.62411
151.4362,-292.0,2.62451
151.7374,-292.0,2.63402
152.0375,-292.0,2.62957
152.3373,-292.0,2.62876
152.6372,-292.0,2.62714
152.9376,-292.0,2.62451
153.2378,-292.0,2.62836
153.5372,-292.0,2.61623
153.837,-292.0,2.62775
154.1389,-292.0,2.62007
154.4409,-292.0,2.61339
154.7403,-292.0,2.61521
155.0402,-292.0,2.61804
155.341,-292.0,2.61865
155.6437,-292.0,2.62532
155.9467,-292.0,2.62532
156.2473,-292.0,2.62815
156.5487,-292.0,2.62714
156.8498,-292.0,2.62613
157.1499,-292.0,2.63078
157.4507,-292.0,2.62937
157.7516,-292.0,2.62007
158.051,-292.0,2.62108
158.3511,-292.0,2.62189
158.6511,-292.0,2.62553
158.9526,-292.0,2.61804
159.2538,-292.0,2.6235
159.5537,-292.0,2.62532
159.8547,-292.0,2.61461
160.1561,-292.0,2.61784
160.4563,-292.0,2.62431
160.7567,-292.0,2.62654
161.0564,-292.0,2.63483
161.3581,-292.0,2.63179
161.6603,-292.0,2.62411
161.961,-292.0,2.6231
162.2604,-292.0,2.62593
162.5609,-292.0,2.6229
162.8622,-292.0,2.61663
163.1634,-292.0,2.62492
163.4648,-292.0,2.62088
163.7655,-292.0,2.61683
164.067,-292.0,2.62189
164.3668,-292.0,2.62067
164.668,-292.0,2.62654
164.9686,-292.0,2.61926
165.2698,-292.0,2.62613
165.5721,-292.0,2.63119
165.8725,-292.0,2.6235
166.1728,-292.0,2.62067
166.4729,-292.0,2.62532
166.7722,-292.0,2.61744
167.0724,-292.0,2.62229
167.3728,-292.0,2.62593
167.6727,-292.0,2.62148
167.9729,-292.0,2.61764
168.2726,-292.0,2.62532
168.5728,-292.0,2.6233
168.8751,-292.0,2.6227
169.1751,-292.0,2.63058
169.4765,-292.0,2.62613
169.7778,-292.0,2.62108
170.0778,-292.0,2.62735
170.3802,-292.0,2.63179
170.6819,-292.0,2.62148
170.9829,-292.0,2.62714
171.2824,-292.0,2.62694
171.5829,-292.0,2.62411
171.8834,-292.0,2.63382
172.1859,-292.0,2.63988
172.4855,-292.0,2.62391
172.7856,-292.0,2.62573
173.0857,-292.0,2.62451
173.3872,-292.0,2.6229
173.6873,-292.0,2.62451
173.9877,-292.0,2.62714
174.288,-292.0,2.62371
174.5878,-292.0,2.62431
174.8878,-292.0,2.62168
175.1892,-292.0,2.62795
175.4888,-292.0,2.6235
175.7904,-292.0,2.62168
176.0905,-292.0,2.63705
176.3919,-292.0,2.6227
176.6916,-292.0,2.62613
176.9929,-292.0,2.6324
177.2967,-292.0,2.62815
177.5981,-292.0,2.61966
177.8983,-292.0,2.63159
178.1998,-292.0,2.62512
178.5019,-292.0,2.62917
178.8025,-292.0,2.62573
179.1047,-292.0,2.63503
179.406,-292.0,2.61744
179.7054,-292.0,2.62633
180.0056,-292.0,2.62836
180.3069,-292.0,2.60915
180.6069,-292.0,2.61441
180.9068,-292.0,2.62007
181.2075,-292.0,2.61703
181.5074,-292.0,2.63058
181.8085,-292.0,2.63098
182.1089,-292.0,2.632
182.4106,-292.0,2.62249
182.7106,-292.0,2.62997
183.0127,-292.0,2.63018
183.3128,-292.0,2.61986
183.6147,-292.0,2.632
183.9152,-292.0,2.63644
184.2153,-292.0,2.63462
184.516,-292.0,2.62027
184.8156,-292.0,2.62815
185.1175,-292.0,2.62108
185.4184,-292.0,2.62836
185.722,-292.0,2.62694
186.0262,-292.0,2.6231
186.3273,-292.0,2.62189
186.6294,-292.0,2.62391
186.9306,-292.0,2.63422
187.233,-292.0,2.63321
187.5337,-292.0,2.62755
187.8352,-292.0,2.6326
188.137,-292.0,2.62694
188.439,-292.0,2.62714
188.7411,-292.0,2.62694
189.0426,-292.0,2.62876
189.3436,-292.0,2.62451
189.6443,-292.0,2.62128
189.9455,-292.0,2.62674
190.247,-292.0,2.62189
190.547,-292.0,2.61623
190.8483,-292.0,2.61703
191.149,-292.0,2.61643
191.4504,-292.0,2.60409
191.7511,-292.0,2.61238
192.0505,-292.0,2.61218
192.3508,-292.0,2.6142
192.6508,-292.0,2.61097
192.9508,-292.0,2.61238
193.2531,-292.0,2.61319
193.5528,-292.0,2.62209
193.8537,-292.0,2.62997
194.1552,-292.0,2.62654
194.4551,-292.0,2.62431
194.7549,-292.0,2.62714
195.0551,-292.0,2.63462
195.3553,-292.0,2.63483
195.6575,-292.0,2.62694
195.9581,-292.0,2.63038
196.2591,-292.0,2.63018
196.5611,-292.0,2.632
196.8623,-292.0,2.62755
197.1648,-292.0,2.63058
197.4675,-292.0,2.61703
197.7667,-292.0,2.62532
198.0669,-292.0,2.62714
198.3671,-292.0,2.61885
198.6674,-292.0,2.61259
198.9667,-292.0,2.63119
199.2667,-292.0,2.62613
199.5674,-292.0,2.62997
199.8677,-292.0,2.6235
200.1681,-292.0,2.61946
200.4686,-292.0,2.62128
200.7682,-292.0,2.62512
201.0681,-292.0,2.62108
201.3695,-292.0,2.62371
201.669,-292.0,2.61784
201.9711,-292.0,2.6235
202.2724,-292.0,2.62795
202.5738,-292.0,2.62856
202.8755,-292.0,2.62573
203.1747,-292.0,2.62917
203.477,-292.0,2.63018
203.7767,-292.0,2.6235
204.0793,-292.0,2.6229
204.3816,-292.0,2.6233
204.6817,-292.0,2.62492
204.9843,-292.0,2.62189
205.2855,-292.0,2.62108
205.5853,-292.0,2.62249
205.8848,-292.0,2.62573
206.185,-292.0,2.62613
206.485,-292.0,2.6229
206.7861,-292.0,2.62007
207.0879,-292.0,2.62088
207.3896,-292.0,2.62613
207.689,-292.0,2.62371
207.9902,-292.0,2.62492
208.2903,-292.0,2.63159
208.5906,-292.0,2.62957
208.8915,-292.0,2.62674
209.1917,-292.0,2.62957
209.4921,-292.0,2.62856
209.7932,-292.0,2.62067
210.0939,-292.0,2.62917
210.3965,-292.0,2.63038
210.6987,-292.0,2.62896
210.9993,-292.0,2.62573
211.2998,-292.0,2.63685
211.6,-292.0,2.63179
211.9015,-292.0,2.62694
212.2033,-292.0,2.63766
212.5039,-292.0,2.62654
212.806,-292.0,2.62573
213.1069,-292.0,2.63361
213.4076,-292.0,2.62694
213.707,-292.0,2.62168
214.0078,-292.0,2.62896
214.3094,-292.0,2.62148
214.6096,-292.0,2.63462
214.9093,-292.0,2.63745
215.2093,-292.0,2.62997
215.5088,-292.0,2.63139
215.8107,-292.0,2.63139
216.1114,-292.0,2.63321
216.4111,-292.0,2.62714
216.712,-292.0,2.62593
217.0124,-292.0,2.62836
217.3346,-293.231,2.62633
217.6348,-295.251,2.61885
217.9363,-297.233,2.57538
218.2367,-299.25,2.46802
218.5376,-300.001,2.32467
218.8381,-300.001,2.13138
219.1388,-300.001,2.01513
219.4407,-300.0,2.02908
219.7401,-300.0,2.02867
220.0411,-300.0,2.03352
220.3412,-300.0,2.03838
220.6427,-300.0,2.03817
220.9426,-300.0,2.04323
221.2434,-300.0,2.04181
221.5445,-300.0,2.04727
221.8458,-300.0,2.04323
222.1454,-300.0,2.04566
222.4471,-300.0,2.04849
222.7486,-300.0,2.04323
223.0503,-300.0,2.05273
223.3517,-300.0,2.04889
223.6539,-300.0,2.05192
223.9553,-300.0,2.05213
224.2564,-300.0,2.05051
224.5578,-300.0,2.05435
224.858,-300.0,2.0501
225.1605,-300.0,2.05819
225.4615,-300.0,2.05293
225.7613,-300.0,2.0499
226.0618,-300.0,2.05415
226.3619,-300.0,2.05354
226.6627,-300.0,2.05435
226.9632,-300.0,2.05678
227.2637,-300.0,2.05819
227.5659,-300.0,2.05455
227.8652,-300.0,2.06183
228.1665,-300.0,2.04808
228.4664,-300.0,2.0588
228.7663,-300.0,2.06183
229.0664,-300.0,2.05657
229.367,-300.0,2.06587
229.6679,-300.0,2.06709
229.9675,-300.0,2.06102
230.2702,-300.0,2.06163
230.5913,-300.553,2.06365
230.8913,-302.572,2.06082
231.1928,-304.555,2.02887
231.4935,-306.574,1.73934
231.793,-308.556,1.3099
232.0933,-310.573,0.72639
232.3937,-312.555,-0.0987317
232.6943,-314.572,-1.27303
232.9956,-316.588,-2.9538
233.2961,-316.801,-5.42937
233.5987,-316.801,-9.06974
233.8993,-316.801,-9.85806
234.1995,-316.8,-8.9644
234.5,-316.8,-8.57054
234.8013,-316.8,-8.30365
235.1029,-316.8,-8.11966
235.4038,-316.8,-7.97995
235.7039,-316.8,-7.86369
236.0043,-316.8,-7.76301
236.3047,-316.8,-7.67748
236.6071,-316.8,-7.59984
236.9073,-316.8,-7.53595
237.2097,-316.8,-7.47388
237.5116,-316.8,-7.41484
237.813,-316.8,-7.36167
238.1147,-316.8,-7.32224
238.4163,-316.8,-7.28099
238.7189,-316.8,-7.23975
239.0202,-316.8,-7.208
239.3227,-316.8,-7.1708
239.6227,-316.8,-7.13178
239.9222,-316.8,-7.09822
240.2235,-316.8,-7.06809
240.5262,-316.8,-7.04504
240.827,-316.8,-7.02139
241.1281,-316.8,-6.99611
241.4298,-316.8,-6.97852
241.7297,-316.8,-6.94718
242.0311,-316.8,-6.93182
242.3317,-316.8,-6.9025
242.6314,-316.8,-6.88653
242.9314,-316.8,-6.86611
243.2327,-316.8,-6.85013
243.5334,-316.8,-6.83093
243.8339,-316.8,-6.82001
244.1351,-316.8,-6.79292
244.4353,-316.8,-6.77957
244.7352,-316.8,-6.75814
245.0361,-316.8,-6.74318
245.3379,-316.8,-6.72316
245.6387,-316.8,-6.71022
245.9397,-316.8,-6.70416
246.2414,-316.8,-6.68272
246.5438,-316.8,-6.67221
246.8438,-316.8,-6.6623
247.1438,-316.8,-6.64916
247.4449,-316.8,-6.63905
247.7458,-316.8,-6.62611
248.0463,-316.8,-6.60751
248.3475,-316.8,-6.59518
248.6477,-316.8,-6.58224
248.9474,-316.8,-6.57658
249.2476,-316.8,-6.56889
249.5483,-316.8,-6.55535
249.8501,-316.8,-6.5414
250.1512,-316.8,-6.52684
250.4508,-316.8,-6.52522
250.7515,-316.8,-6.5143
251.052,-316.8,-6.50298
251.3529,-316.8,-6.49934
251.6542,-316.8,-6.48539
251.9535,-316.8,-6.47771
252.2563,-316.8,-6.4589
252.5574,-316.8,-6.45526
252.8602,-316.8,-6.44495
253.1598,-316.8,-6.43505
253.4608,-316.8,-6.43019
253.762,-316.8,-6.42979
254.0621,-316.8,-6.4213
254.3635,-316.8,-6.40876
254.6648,-316.8,-6.40411
254.9677,-316.8,-6.39764
255.2679,-316.8,-6.38713
255.5676,-316.8,-6.37965
255.8689,-316.8,-6.37318
256.1688,-316.8,-6.36125
256.4694,-316.8,-6.35761
256.7694,-316.8,-6.35296
257.0723,-316.8,-6.34063
257.3716,-316.8,-6.33982
257.6732,-316.8,-6.33436
257.9729,-316.8,-6.3289
258.2752,-316.8,-6.32
258.5747,-316.8,-6.30504
258.8745,-316.8,-6.30666
259.1751,-316.8,-6.29756
259.4743,-316.8,-6.29048
259.7746,-316.8,-6.28381
260.0757,-316.8,-6.27694
260.3766,-316.8,-6.26137
260.6776,-316.8,-6.26339
260.9792,-316.8,-6.25874
261.2806,-316.8,-6.25672
261.5817,-316.8,-6.25005
261.8831,-316.8,-6.23549
262.1839,-316.8,-6.23852
262.4837,-316.8,-6.23569
262.7838,-316.8,-6.22578
263.0854,-316.8,-6.22578
263.3866,-316.8,-6.21365
263.6866,-316.8,-6.21709
263.9873,-316.8,-6.20152
264.2874,-316.8,-6.19849
264.5883,-316.8,-6.19283
264.8875,-316.8,-6.18737
265.189,-316.8,-6.18656
265.4898,-316.8,-6.17625
265.7905,-316.8,-6.17342
266.0917,-316.8,-6.17301
266.3911,-316.8,-6.16917
266.6915,-316.8,-6.16675
266.994,-316.8,-6.15138
267.2972,-316.8,-6.153
267.5977,-316.8,-6.15097
267.9011,-316.8,-6.14572
268.1995,-316.8,-6.14026
268.502,-316.8,-6.135
268.8036,-316.8,-6.12914
269.1063,-316.8,-6.1255
269.407,-316.8,-6.11114
269.709,-316.8,-6.1071
270.0088,-316.8,-6.11074
270.311,-316.8,-6.10548
270.611,-316.8,-6.10184
270.9131,-316.8,-6.09436
271.214,-316.8,-6.09396
271.5141,-316.8,-6.08789
271.8144,-316.8,-6.08991
272.1151,-316.8,-6.0798
272.4146,-316.8,-6.07414
272.7152,-316.8,-6.07273
273.0157,-316.8,-6.07657
273.3168,-316.8,-6.06666
273.6194,-316.8,-6.05979
273.9201,-316.8,-6.05433
274.2199,-316.8,-6.05069
274.5197,-316.8,-6.05372
274.8215,-316.8,-6.0515
275.1207,-316.8,-6.04462
275.4215,-316.8,-6.04624
275.7241,-316.8,-6.04139
276.0239,-316.8,-6.03815
276.3246,-316.8,-6.03573
276.6253,-316.8,-6.0331
276.9263,-316.8,-6.02703
277.2272,-316.8,-6.02137
277.5278,-316.8,-6.02097
277.8291,-316.8,-6.01227
278.1288,-316.8,-6.00297
278.4301,-316.8,-6.00196
278.7315,-316.8,-6.00217
279.0323,-316.8,-5.99266
279.3318,-316.8,-5.98842
279.6319,-316.8,-5.99084
279.9335,-316.8,-5.98781
280.2343,-316.8,-5.98053
280.5338,-316.8,-5.97588
280.8352,-316.8,-5.97972
281.135,-316.8,-5.97871
281.4365,-316.8,-5.97406
281.736,-316.8,-5.97305
282.0374,-316.8,-5.97224
282.3381,-316.8,-5.96355
282.6398,-316.8,-5.9591
282.9413,-316.8,-5.96011
283.241,-316.8,-5.96153
283.5433,-316.8,-5.94899
283.844,-316.8,-5.95162
284.1454,-316.8,-5.94798
284.4455,-316.8,-5.93625
284.7455,-316.8,-5.94737
285.046,-316.8,-5.9316
285.3483,-316.8,-5.92998
285.6484,-316.8,-5.9314
285.9506,-316.8,-5.92897
286.2516,-316.8,-5.92109
286.5528,-316.8,-5.92513
286.8549,-316.8,-5.92068
287.1572,-316.8,-5.92149
287.4567,-316.8,-5.92028
287.759,-316.8,-5.91017
288.0591,-316.8,-5.91118
288.3592,-316.8,-5.90795
288.6597,-316.8,-5.91058
288.9611,-316.8,-5.90633
289.2614,-316.8,-5.90208
289.562,-316.8,-5.89865
289.862,-316.8,-5.89379
290.1644,-316.8,-5.8948
290.4649,-316.8,-5.89662
290.7662,-316.8,-5.89157
291.0661,-316.8,-5.88712
291.3667,-316.8,-5.88894
291.6674,-316.8,-5.87883
291.9684,-316.8,-5.88106
292.2715,-316.8,-5.87823
292.571,-316.8,-5.87378
292.8744,-316.8,-5.87196
293.1757,-316.8,-5.86367
293.4749,-316.8,-5.86609
293.7761,-316.8,-5.85983
294.076,-316.8,-5.85983
294.3778,-316.8,-5.85861
294.6783,-316.8,-5.8578
294.9794,-316.8,-5.85194
295.2793,-316.8,-5.85598
295.5797,-316.8,-5.84871
295.8799,-316.8,-5.84689
296.1799,-316.8,-5.84547
296.4816,-316.8,-5.84224
296.7827,-316.8,-5.84689
297.0824,-316.8,-5.83759
297.3842,-316.8,-5.83435
297.6844,-316.8,-5.83314
297.9859,-316.8,-5.82849
298.2864,-316.8,-5.82384
298.5865,-316.8,-5.82283
298.8889,-316.8,-5.8206
299.1893,-316.8,-5.82606
299.4904,-316.8,-5.82202
299.7918,-316.8,-5.81979
300.0948,-316.8,-5.81838
300.3944,-316.8,-5.81251
300.695,-316.8,-5.80928
300.9959,-316.8,-5.81009
301.2977,-316.8,-5.80665
301.598,-316.8,-5.80665
301.8986,-316.8,-5.79634
302.1992,-316.8,-5.79391
302.4985,-316.8,-5.79007
302.7981,-316.8,-5.78502
303.0998,-316.8,-5.78461
303.3999,-316.8,-5.77915
303.7006,-316.8,-5.78663
304.001,-316.8,-5.78239
304.3014,-316.8,-5.78441
304.6036,-316.8,-5.77794
304.9036,-316.8,-5.78138
305.2044,-316.8,-5.78401
305.5056,-316.8,-5.78118
305.8058,-316.8,-5.76763
306.1065,-316.8,-5.77349
306.408,-316.8,-5.77228
306.7098,-316.8,-5.76601
307.0091,-316.8,-5.77167
307.3101,-316.8,-5.7648
307.6125,-316.8,-5.76197
307.9125,-316.8,-5.75712
308.213,-316.8,-5.75651
308.5143,-316.8,-5.75732
308.8146,-316.8,-5.75166
309.1168,-316.8,-5.74316
309.419,-316.8,-5.746
309.7198,-316.8,-5.74377
310.0209,-316.8,-5.74519
310.3217,-316.8,-5.74498
310.6215,-316.8,-5.73953
310.923,-316.8,-5.74215
311.2246,-316.8,-5.7371
311.5247,-316.8,-5.72901
311.8246,-316.8,-5.73609
312.1246,-316.8,-5.73346
312.4254,-316.8,-5.73488
312.7255,-316.8,-5.73346
313.0271,-316.8,-5.72982
313.3275,-316.8,-5.73184
313.6272,-316.8,-5.73366
313.9287,-316.8,-5.73225
314.2306,-316.8,-5.72113
314.5318,-316.8,-5.72113
314.8327,-316.8,-5.71688
315.1335,-316.8,-5.72092
315.4349,-316.8,-5.71991
315.7361,-316.8,-5.71627
316.0375,-316.8,-5.71223
316.3397,-316.8,-5.71041
316.6399,-316.8,-5.70475
316.9411,-316.8,-5.70394
317.2414,-316.8,-5.70131
317.5415,-316.8,-5.70738
317.8415,-316.8,-5.70515
318.1434,-316.8,-5.70758
318.4437,-316.8,-5.70475
318.7438,-316.8,-5.69545
319.0443,-316.8,-5.69464
319.3445,-316.8,-5.68817
319.6458,-316.8,-5.69464
319.9456,-316.8,-5.69504
320.2466,-316.8,-5.68918
320.547,-316.8,-5.68251
320.8462,-316.8,-5.68675
321.1469,-316.8,-5.68413
321.4477,-316.8,-5.68231
321.7481,-316.8,-5.68069
322.0478,-316.8,-5.67887
322.3497,-316.8,-5.6815
322.6524,-316.8,-5.68534
322.9532,-316.8,-5.68008
323.2532,-316.8,-5.67806
323.5561,-316.8,-5.6726
323.8561,-316.8,-5.67139
324.156,-316.8,-5.67321
324.4561,-316.8,-5.66654
324.7558,-316.8,-5.6633
325.0561,-316.8,-5.66067
325.356,-316.8,-5.66088
325.656,-316.8,-5.65906
325.9553,-316.8,-5.66593
326.2569,-316.8,-5.66532
326.5573,-316.8,-5.65622
326.8574,-316.8,-5.65157
327.1582,-316.8,-5.65077
327.4598,-316.8,-5.6542
327.7621,-316.8,-5.64814
328.0624,-316.8,-5.6538
328.3635,-316.8,-5.65036
328.6648,-316.8,-5.64935
328.9655,-316.8,-5.6443
329.266,-316.8,-5.64591
329.5661,-316.8,-5.63944
329.8674,-316.8,-5.64268
330.1676,-316.8,-5.63338
330.4678,-316.8,-5.6354
330.7702,-316.8,-5.63095
331.0715,-316.8,-5.62812
331.3714,-316.8,-5.63277
331.6718,-316.8,-5.62933
331.9722,-316.8,-5.6261
332.2728,-316.8,-5.62711
332.5725,-316.8,-5.63176
332.8731,-316.8,-5.62751
333.1725,-316.8,-5.62691
333.4729,-316.8,-5.62569
333.7741,-316.8,-5.62569
334.0741,-316.8,-5.62044
334.3749,-316.8,-5.61579
334.6748,-316.8,-5.62145
334.9757,-316.8,-5.61842
335.2768,-316.8,-5.61114
335.5782,-316.8,-5.61397
335.8786,-316.8,-5.60649
336.1799,-316.8,-5.60689
336.4829,-316.8,-5.60527
336.7843,-316.8,-5.6081
337.0854,-316.8,-5.60891
337.388,-316.8,-5.61134
337.6878,-316.8,-5.60891
337.9878,-316.8,-5.60669
338.2884,-316.8,-5.60467
338.5892,-316.8,-5.5984
338.891,-316.8,-5.60265
339.1907,-316.8,-5.60143
339.4905,-316.8,-5.60103
339.7916,-316.8,-5.5984
340.092,-316.8,-5.59597
340.3915,-316.8,-5.58869
340.6922,-316.8,-5.59233
340.9917,-316.8,-5.59395
341.2916,-316.8,-5.58586
341.5927,-316.8,-5.58768
341.894,-316.8,-5.5895
342.1949,-316.8,-5.5891
342.4958,-316.8,-5.58121
342.7972,-316.8,-5.57838
343.0984,-316.8,-5.58263
343.3989,-316.8,-5.57454
343.7001,-316.8,-5.57495
344.0022,-316.8,-5.57434
344.3022,-316.8,-5.5703
344.602,-316.8,-5.56908
344.9036,-316.8,-5.57636
345.2047,-316.8,-5.56949
345.5045,-316.8,-5.56888
345.805,-316.8,-5.56767
346.1052,-316.8,-5.56868
346.4056,-316.8,-5.56827
346.7059,-316.8,-5.56868
347.0082,-316.8,-5.56463
347.3079,-316.8,-5.56645
347.6085,-316.8,-5.56565
347.9093,-316.8,-5.56403
348.2111,-316.8,-5.56605
348.5126,-316.8,-5.57272
348.8137,-316.8,-5.56767
349.1148,-316.8,-5.55918
349.416,-316.8,-5.55816
349.7158,-316.8,-5.5519
350.0167,-316.8,-5.55048
350.3181,-316.8,-5.55412
350.6194,-316.8,-5.55554
350.9201,-316.8,-5.54543
351.2206,-316.8,-5.54826
351.5222,-316.8,-5.54664
351.8244,-316.8,-5.54725
352.1246,-316.8,-5.54785
352.4249,-316.8,-5.54381
352.7248,-316.8,-5.54745
353.0252,-316.8,-5.54442
353.3253,-316.8,-5.54806
353.6252,-316.8,-5.54179
353.9247,-316.8,-5.53552
354.2246,-316.8,-5.53552
354.5265,-316.8,-5.53774
354.8269,-316.8,-5.5341
355.1281,-316.8,-5.53512
355.4293,-316.8,-5.53714
355.7303,-316.8,-5.53208
356.0298,-316.8,-5.53127
356.3299,-316.8,-5.52925
356.6304,-316.8,-5.52723
356.9309,-316.8,-5.52662
357.2326,-316.8,-5.52581
357.533,-316.8,-5.52622
357.8331,-316.8,-5.52541
358.1345,-316.8,-5.52036
358.4351,-316.8,-5.51793
358.7365,-316.8,-5.51732
359.0368,-316.8,-5.51793
359.3374,-316.8,-5.52036
359.6391,-316.8,-5.51914
359.9396,-316.8,-5.51368
360.2399,-316.8,-5.51267
360.5413,-316.8,-5.51227
360.8412,-316.8,-5.51186
361.1417,-316.8,-5.51287
361.4429,-316.8,-5.51227
361.7446,-316.8,-5.50317
362.045,-316.8,-5.51065
362.3452,-316.8,-5.50944
362.6452,-316.8,-5.51207
362.9459,-316.8,-5.50742
363.2481,-316.8,-5.50277
363.5506,-316.8,-5.50317
363.8517,-316.8,-5.49892
364.1526,-316.8,-5.4965
364.4528,-316.8,-5.49993
364.753,-316.8,-5.50155
365.0551,-316.8,-5.49589
365.3551,-316.8,-5.49043
365.656,-316.8,-5.49528
365.9577,-316.8,-5.49731
366.26,-316.8,-5.4971
366.5623,-316.8,-5.49367
366.8628,-316.8,-5.48983
367.1631,-316.8,-5.48983
367.4656,-316.8,-5.49043
367.7666,-316.8,-5.48558
368.0672,-316.8,-5.48396
368.3686,-316.8,-5.48194
368.6682,-316.8,-5.48113
368.9678,-316.8,-5.48234
369.2682,-316.8,-5.47668
369.5689,-316.8,-5.48052
369.8688,-316.8,-5.48133
370.1697,-316.8,-5.48295
370.4701,-316.8,-5.48497
370.7701,-316.8,-5.46698
371.0701,-316.8,-5.47951
371.3724,-316.8,-5.4781
371.6728,-316.8,-5.47931
371.973,-316.8,-5.47446
372.2731,-316.8,-5.47365
372.5738,-316.8,-5.47587
372.8758,-316.8,-5.47466
373.1767,-316.8,-5.47486
373.4766,-316.8,-5.46536
373.776,-316.8,-5.47284
374.0768,-316.8,-5.47689
374.3768,-316.8,-5.46698
374.6793,-316.8,-5.46981
374.9823,-316.8,-5.47587
375.2826,-316.8,-5.47264
375.5831,-316.8,-5.46435
375.8859,-316.8,-5.45889
376.1887,-316.8,-5.4601
376.488,-316.8,-5.46617
376.7902,-316.8,-5.46172
377.09,-316.8,-5.4601
377.3898,-316.8,-5.45869
377.6908,-316.8,-5.45545
377.991,-316.8,-5.45505
378.2914,-316.8,-5.45889
378.592,-316.8,-5.45181
378.8928,-316.8,-5.45808
379.1928,-316.8,-5.45181
379.494,-316.8,-5.45161
379.7953,-316.8,-5.44636
380.0953,-316.8,-5.44838
380.3966,-316.8,-5.45101
380.6977,-316.8,-5.45404
380.9973,-316.8,-5.45788
381.299,-316.8,-5.44251
381.6008,-316.8,-5.44251
381.9019,-316.8,-5.44272
382.2021,-316.8,-5.44373
382.5033,-316.8,-5.44413
382.8035,-316.8,-5.4415
383.1037,-316.8,-5.44292
383.4032,-316.8,-5.44069
383.7033,-316.8,-5.44393
384.0032,-316.8,-5.44534
384.3035,-316.8,-5.44211
384.6044,-316.8,-5.43887
384.9056,-316.8,-5.44272
385.2071,-316.8,-5.43321
385.5087,-316.8,-5.43058
385.8086,-316.8,-5.43705
386.1101,-316.8,-5.43402
386.4104,-316.8,-5.42816
386.7118,-316.8,-5.42957
387.0114,-316.8,-5.4316
387.3114,-316.8,-5.43058
387.6121,-316.8,-5.42513
387.9125,-316.8,-5.42735
388.2129,-316.8,-5.42877
388.5139,-316.8,-5.42816
388.815,-316.8,-5.43261
389.117,-316.8,-5.42472
389.4171,-316.8,-5.42978
389.7184,-316.8,-5.43281
390.0199,-316.8,-5.42917
390.3209,-316.8,-5.43342
390.6202,-316.8,-5.42856
390.9218,-316.8,-5.42796
391.2221,-316.8,-5.41866
391.5229,-316.8,-5.42027
391.822,-316.8,-5.41946
392.1246,-316.8,-5.4225
392.4266,-316.8,-5.41785
392.7278,-316.8,-5.41583
393.0281,-316.8,-5.41825
393.3286,-316.8,-5.41724
393.6305,-316.8,-5.41502
393.9302,-316.8,-5.40936
394.2315,-316.8,-5.41016
394.5335,-316.8,-5.41299
394.8334,-316.8,-5.41016
395.1344,-316.8,-5.4039
395.4356,-316.8,-5.4039
395.7371,-316.8,-5.40996
396.0361,-316.8,-5.40187
396.3371,-316.8,-5.40592
396.6382,-316.8,-5.40369
396.94,-316.8,-5.40754
397.2395,-316.8,-5.4045
397.5401,-316.8,-5.40147
397.841,-316.8,-5.40329
398.1407,-316.8,-5.40026
398.4405,-316.8,-5.39783
398.7406,-316.8,-5.40329
399.0403,-316.8,-5.39965
399.3412,-316.8,-5.3952
399.6416,-316.8,-5.40369
399.9422,-316.8,-5.40551
400.2434,-316.8,-5.39338
400.5433,-316.8,-5.3946
400.8433,-316.8,-5.39642
401.1436,-316.8,-5.3948
401.4434,-316.8,-5.39318
401.7442,-316.8,-5.38934
402.0465,-316.8,-5.39399
402.3465,-316.8,-5.39257
402.6481,-316.8,-5.38914
402.9475,-316.8,-5.38651
403.2488,-316.8,-5.38085
403.5508,-316.8,-5.38873
403.8505,-316.8,-5.39035
404.1506,-316.8,-5.38691
404.4512,-316.8,-5.38388
404.7513,-316.8,-5.39278
405.0522,-316.8,-5.38004
405.3533,-316.8,-5.38348
405.6547,-316.8,-5.38489
405.9559,-316.8,-5.37741
406.2559,-316.8,-5.38226
406.558,-316.8,-5.38145
406.858,-316.8,-5.37822
407.1579,-316.8,-5.37984
407.4576,-316.8,-5.39096
407.7607,-316.8,-5.38044
408.0618,-316.8,-5.38024
408.3614,-316.8,-5.37519
408.6627,-316.8,-5.3762
408.9657,-316.8,-5.38166
409.2671,-316.8,-5.37195
409.5677,-316.8,-5.36851
409.8682,-316.8,-5.37316
410.1694,-316.8,-5.37094
410.4697,-316.8,-5.37033
410.7711,-316.8,-5.37054
411.0712,-316.8,-5.37155
411.3705,-316.8,-5.37276
411.6707,-316.8,-5.36831
411.9713,-316.8,-5.36993
412.2731,-316.8,-5.3675
412.5736,-316.8,-5.36892
412.8735,-316.8,-5.36467
413.1746,-316.8,-5.36022
413.4757,-316.8,-5.35214
413.7757,-316.8,-5.36326
414.0757,-316.8,-5.36083
414.3773,-316.8,-5.35719
414.5774,-316.8,-5.36245