File: Tinius-Olsen_Levitation_force/Preprocessed_measures/20231204_1344cut1_highN_2.txt.csv
Time(s),Displacement(mm),Force(N)
0.0,-281.797,2.77899
0.3615,-281.797,2.77979
0.6619,-281.797,2.78182
0.9636,-281.797,2.77373
1.2642,-281.797,2.79294
1.5642,-281.797,2.7808
1.8642,-281.797,2.78485
2.1645,-281.797,2.78626
2.4637,-281.797,2.7804
2.7641,-281.797,2.77474
3.0639,-281.797,2.77433
3.3639,-281.797,2.77514
3.6658,-281.797,2.77413
3.9672,-281.797,2.77797
4.2681,-281.797,2.78364
4.57,-281.797,2.77595
4.871,-281.797,2.76908
5.1724,-281.797,2.78303
5.4739,-281.797,2.78465
5.774,-281.797,2.78545
6.0744,-281.797,2.77858
6.3775,-281.797,2.78141
6.6785,-281.797,2.7895
6.9986,-281.0,2.78444
7.2987,-281.0,2.80163
7.5989,-281.0,2.79658
7.8997,-281.0,2.79536
8.199,-281.0,2.79051
8.4996,-281.0,2.78647
8.8,-281.0,2.79172
9.1002,-281.0,2.79334
9.3998,-281.0,2.77757
9.7006,-281.0,2.78424
10.0013,-281.0,2.78182
10.3041,-281.0,2.79011
10.6038,-281.0,2.78849
10.9039,-281.0,2.78505
11.2041,-281.0,2.78606
11.5045,-281.0,2.78444
11.8051,-281.0,2.78626
12.105,-281.0,2.78222
12.4054,-281.0,2.77939
12.7055,-281.0,2.78545
13.0057,-281.0,2.78566
13.3058,-281.0,2.79132
13.6068,-281.0,2.78424
13.9073,-281.0,2.7895
14.2088,-281.0,2.7808
14.5082,-281.0,2.78687
14.8091,-281.0,2.79536
15.1102,-281.0,2.78485
15.4101,-281.0,2.79112
15.7103,-281.0,2.79516
16.0102,-281.0,2.78404
16.311,-281.0,2.79961
16.6124,-281.0,2.79031
16.912,-281.0,2.79071
17.214,-281.0,2.78525
17.5148,-281.0,2.7893
17.8157,-281.0,2.79435
18.1169,-281.0,2.79152
18.4186,-281.0,2.79112
18.7185,-281.0,2.78869
19.0192,-281.0,2.79031
19.3199,-281.0,2.79354
19.6215,-281.0,2.78808
19.9216,-281.0,2.79395
20.2216,-281.0,2.78829
20.5228,-281.0,2.79496
20.823,-281.0,2.78586
21.1238,-281.0,2.79718
21.4237,-281.0,2.78323
21.7249,-281.0,2.78545
22.0278,-281.0,2.78404
22.3293,-281.0,2.78424
22.6292,-281.0,2.78727
22.9292,-281.0,2.78727
23.2292,-281.0,2.79536
23.5293,-281.0,2.78384
23.8313,-281.0,2.7808
24.1547,-280.445,2.84368
24.4543,-280.0,2.79374
24.7559,-280.0,2.80507
25.0562,-280.0,2.7992
25.3568,-280.0,2.79961
25.659,-280.0,2.79476
25.9612,-280.0,2.79314
26.261,-280.0,2.79981
26.5632,-280.0,2.79455
26.8641,-280.0,2.80891
27.1666,-280.0,2.79516
27.4673,-280.0,2.79213
27.7685,-280.0,2.79374
28.0706,-280.0,2.78829
28.3704,-280.0,2.7988
28.6715,-280.0,2.7986
28.9713,-280.0,2.79415
29.2718,-280.0,2.7988
29.5717,-280.0,2.79476
29.8722,-280.0,2.80365
30.1729,-280.0,2.81154
30.4732,-280.0,2.80264
30.7744,-280.0,2.7986
31.0762,-280.0,2.79759
31.3776,-280.0,2.81315
31.6783,-280.0,2.79617
31.9799,-280.0,2.79273
32.2793,-280.0,2.80608
32.5795,-280.0,2.79031
32.8793,-280.0,2.79738
33.1793,-280.0,2.78909
33.4819,-280.0,2.80628
33.7813,-280.0,2.81073
34.0815,-280.0,2.80203
34.3814,-280.0,2.80588
34.6825,-280.0,2.80406
34.9833,-280.0,2.80648
35.2838,-280.0,2.79779
35.5835,-280.0,2.7986
35.8831,-280.0,2.80021
36.1845,-280.0,2.7992
36.4843,-280.0,2.79759
36.7862,-280.0,2.80608
37.0877,-280.0,2.79738
37.3891,-280.0,2.79779
37.6902,-280.0,2.80406
37.9914,-280.0,2.80123
38.2918,-280.0,2.80042
38.5914,-280.0,2.80507
38.8916,-280.0,2.80345
39.1914,-280.0,2.80244
39.4918,-280.0,2.799
39.7925,-280.0,2.80082
40.0924,-280.0,2.80426
40.3954,-280.0,2.80466
40.6963,-280.0,2.80931
40.9975,-280.0,2.80608
41.2984,-280.0,2.80406
41.5983,-280.0,2.80284
41.8995,-280.0,2.79132
42.2021,-280.0,2.79374
42.5018,-280.0,2.80486
42.8025,-280.0,2.80466
43.1033,-280.0,2.79658
43.4051,-280.0,2.80345
43.7044,-280.0,2.79556
44.0052,-280.0,2.79718
44.3054,-280.0,2.80224
44.606,-280.0,2.79597
44.9071,-280.0,2.79637
45.2091,-280.0,2.80305
45.5094,-280.0,2.80507
45.8095,-280.0,2.79637
46.1095,-280.0,2.81174
46.4096,-280.0,2.80244
46.7112,-280.0,2.80102
47.0118,-280.0,2.77919
47.3119,-280.0,2.78141
47.6119,-280.0,2.80082
47.9129,-280.0,2.81113
48.2138,-280.0,2.80345
48.515,-280.0,2.79779
48.8144,-280.0,2.78909
49.1155,-280.0,2.80365
49.4165,-280.0,2.80123
49.7174,-280.0,2.799
50.0187,-280.0,2.79678
50.3185,-280.0,2.80325
50.6195,-280.0,2.79941
50.9202,-280.0,2.79374
51.2213,-280.0,2.79112
51.5224,-280.0,2.8081
51.8233,-280.0,2.79435
52.1259,-280.0,2.79496
52.4256,-280.0,2.79597
52.7268,-280.0,2.80082
53.0264,-280.0,2.80042
53.3272,-280.0,2.80284
53.6272,-280.0,2.80385
53.9279,-280.0,2.80911
54.2277,-280.0,2.79091
54.5277,-280.0,2.78121
54.8284,-280.0,2.79516
55.1283,-280.0,2.80001
55.4283,-280.0,2.79536
55.7293,-280.0,2.79374
56.0283,-280.0,2.80992
56.3285,-280.0,2.78485
56.6283,-280.0,2.80689
56.9302,-280.0,2.80305
57.232,-280.0,2.80042
57.5319,-280.0,2.79192
57.8315,-280.0,2.79779
58.132,-280.0,2.80203
58.4327,-280.0,2.80163
58.7339,-280.0,2.79354
59.0352,-280.0,2.80911
59.3349,-280.0,2.79779
59.6369,-280.0,2.79799
59.9367,-280.0,2.80345
60.2382,-280.0,2.80648
60.5383,-280.0,2.80709
60.838,-280.0,2.80042
61.1379,-280.0,2.799
61.4394,-280.0,2.80042
61.7418,-280.0,2.79172
62.0414,-280.0,2.79718
62.3428,-280.0,2.80203
62.6439,-280.0,2.79941
62.9457,-280.0,2.79455
63.2454,-280.0,2.79152
63.5466,-280.0,2.79253
63.8489,-280.0,2.79496
64.1496,-280.0,2.80042
64.4507,-280.0,2.78849
64.7521,-280.0,2.79395
65.0518,-280.0,2.79981
65.3516,-280.0,2.81032
65.6518,-280.0,2.80547
65.9518,-280.0,2.80446
66.2521,-280.0,2.81336
66.5531,-280.0,2.79192
66.8529,-280.0,2.80911
67.1533,-280.0,2.77656
67.4531,-280.0,2.81356
67.7526,-280.0,2.82488
68.0531,-280.0,2.79031
68.3532,-280.0,2.80062
68.6539,-280.0,2.80123
68.9548,-280.0,2.79071
69.2549,-280.0,2.77979
69.5564,-280.0,2.79192
69.8565,-280.0,2.79071
70.1567,-280.0,2.80062
70.4567,-280.0,2.81497
70.7565,-280.0,2.80062
71.0584,-280.0,2.78303
71.3581,-280.0,2.8362
71.658,-280.0,2.80406
71.9578,-280.0,2.79738
72.2587,-280.0,2.80871
72.5598,-280.0,2.79759
72.8598,-280.0,2.81417
73.1597,-280.0,2.79192
73.4598,-280.0,2.7893
73.7598,-280.0,2.79941
74.0608,-280.0,2.80224
74.3615,-280.0,2.80972
74.6617,-280.0,2.7988
74.964,-280.0,2.80385
75.2647,-280.0,2.80608
75.5687,-280.0,2.7895
75.8675,-280.0,2.81356
76.1688,-280.0,2.80123
76.4686,-280.0,2.79536
76.7695,-280.0,2.77696
77.0711,-280.0,2.8263
77.372,-280.0,2.84247
77.6717,-280.0,2.80608
77.9722,-280.0,2.80001
78.2735,-280.0,2.79455
78.5752,-280.0,2.83034
78.876,-280.0,2.81396
79.1765,-280.0,2.79435
79.4762,-280.0,2.81255
79.7771,-280.0,2.79213
80.0774,-280.0,2.82225
80.3772,-280.0,2.81659
80.6772,-280.0,2.81113
80.9773,-280.0,2.82003
81.2778,-280.0,2.78545
81.578,-280.0,2.80365
81.8776,-280.0,2.80224
82.179,-280.0,2.80123
82.4799,-280.0,2.80527
82.7808,-280.0,2.8077
83.0826,-280.0,2.79658
83.3848,-280.0,2.82043
83.6865,-280.0,2.79577
83.9866,-280.0,2.81821
84.2868,-280.0,2.81639
84.5882,-280.0,2.80102
84.8891,-280.0,2.82933
85.1891,-280.0,2.80648
85.4896,-280.0,2.8178
85.7896,-280.0,2.78788
86.0899,-280.0,2.77919
86.3899,-280.0,2.79738
86.6912,-280.0,2.81538
86.9917,-280.0,2.81032
87.2925,-280.0,2.81194
87.5931,-280.0,2.79071
87.894,-280.0,2.75533
88.1937,-280.0,2.80062
88.495,-280.0,2.79718
88.7948,-280.0,2.80608
89.0959,-280.0,2.82549
89.3977,-280.0,2.83176
89.6983,-280.0,2.81962
89.9996,-280.0,2.78647
90.299,-280.0,2.81437
90.599,-280.0,2.79516
90.8997,-280.0,2.78424
91.2,-280.0,2.79395
91.5015,-280.0,2.77797
91.8011,-280.0,2.79253
92.1021,-280.0,2.79051
92.4023,-280.0,2.84914
92.7027,-280.0,2.77676
93.0034,-280.0,2.78909
93.3031,-280.0,2.78788
93.6036,-280.0,2.79678
93.9029,-280.0,2.78909
94.2028,-280.0,2.79536
94.5032,-280.0,2.83418
94.8057,-280.0,2.84166
95.105,-280.0,2.81275
95.4056,-280.0,2.80648
95.7049,-280.0,2.83337
96.0067,-280.0,2.81295
96.3063,-280.0,2.77474
96.6073,-280.0,2.76847
96.9083,-280.0,2.79981
97.2086,-280.0,2.77797
97.5082,-280.0,2.77939
97.8079,-280.0,2.79233
98.1079,-280.0,2.76645
98.41,-280.0,2.80001
98.71,-280.0,2.7802
99.01,-280.0,2.83742
99.3111,-280.0,2.82367
99.6121,-280.0,2.80264
99.9122,-280.0,2.79516
100.2134,-280.0,2.78647
100.5142,-280.0,2.77413
100.8141,-280.0,2.82205
101.115,-280.0,2.78626
101.4156,-280.0,2.81477
101.716,-280.0,2.81821
102.0163,-280.0,2.79091
102.316,-280.0,2.81336
102.616,-280.0,2.78889
102.9167,-280.0,2.81619
103.2161,-280.0,2.83236
103.5179,-280.0,2.79071
103.818,-280.0,2.82246
104.1199,-280.0,2.83398
104.4205,-280.0,2.78101
104.7201,-280.0,2.85117
105.0234,-280.0,2.78788
105.3237,-280.0,2.80365
105.6234,-280.0,2.81457
105.9237,-280.0,2.83984
106.223,-280.0,2.78343
106.5234,-280.0,2.79455
106.8244,-280.0,2.7806
107.1246,-280.0,2.79941
107.426,-280.0,2.86815
107.7269,-280.0,2.82427
108.0283,-280.0,2.82084
108.3281,-280.0,2.80871
108.6294,-280.0,2.80547
108.9302,-280.0,2.74603
109.2301,-280.0,2.83135
109.5301,-280.0,2.79516
109.8301,-280.0,2.79981
110.1302,-280.0,2.79273
110.4303,-280.0,2.81639
110.7302,-280.0,2.77252
111.0301,-280.0,2.77939
111.3309,-280.0,2.80709
111.6317,-280.0,2.81194
111.9311,-280.0,2.77777
112.2313,-280.0,2.78262
112.5337,-280.0,2.80911
112.8341,-280.0,2.8077
113.1361,-280.0,2.82751
113.4351,-280.0,2.82973
113.7359,-280.0,2.80284
114.038,-280.0,2.83539
114.3385,-280.0,2.82731
114.639,-280.0,2.80021
114.9395,-280.0,2.78424
115.2406,-280.0,2.80062
115.5402,-280.0,2.81983
115.8402,-280.0,2.79031
116.1619,-281.212,2.79516
116.4616,-283.228,2.77049
116.764,-285.245,2.73228
117.0642,-287.228,2.70761
117.3668,-289.245,2.72723
117.6662,-291.261,2.64332
117.9681,-293.278,2.54607
118.2709,-295.295,2.47368
118.5712,-297.276,2.36713
118.8722,-299.296,2.2256
119.1744,-301.315,2.07356
119.4768,-303.331,1.75754
119.7772,-305.314,1.40169
120.0781,-307.331,0.908358
120.3802,-309.347,0.214455
120.68,-311.329,-0.744919
120.9816,-313.351,-2.16851
121.2825,-315.367,-4.00699
121.5825,-316.802,-6.37277
121.8824,-316.801,-7.21912
122.1826,-316.801,-6.32991
122.4827,-316.8,-6.00823
122.7827,-316.8,-5.80908
123.0825,-316.8,-5.66229
123.3825,-316.8,-5.54583
123.6831,-316.8,-5.46273
123.985,-316.8,-5.39439
124.284,-316.8,-5.33657
124.5842,-316.8,-5.25954
124.8847,-316.8,-5.23204
125.1866,-316.8,-5.1819
125.4879,-316.8,-5.12245
125.7872,-316.8,-5.08707
126.0893,-316.8,-5.06766
126.39,-316.8,-5.01691
126.6898,-316.8,-4.98517
126.9898,-316.8,-4.95484
127.2903,-316.8,-4.9237
127.5902,-316.8,-4.91643
127.8903,-316.8,-4.91117
128.1916,-316.8,-4.87397
128.4919,-316.8,-4.8768
128.7915,-316.8,-4.84606
129.0939,-316.8,-4.81594
129.3951,-316.8,-4.8032
129.696,-316.8,-4.78076
129.9977,-316.8,-4.74881
130.2981,-316.8,-4.73426
130.5985,-316.8,-4.74477
130.8994,-316.8,-4.7011
131.2004,-316.8,-4.69301
131.5025,-316.8,-4.70373
131.8051,-316.8,-4.69079
132.1043,-316.8,-4.66005
132.4056,-316.8,-4.65217
132.7051,-316.8,-4.64691
133.0091,-316.8,-4.62912
133.309,-316.8,-4.61092
133.6082,-316.8,-4.60425
133.9103,-316.8,-4.60405
134.2126,-316.8,-4.59535
134.5135,-316.8,-4.58302
134.8134,-316.8,-4.56563
135.1133,-316.8,-4.55451
135.4139,-316.8,-4.54056
135.7151,-316.8,-4.53773
136.0151,-316.8,-4.51023
136.3159,-316.8,-4.52216
136.6158,-316.8,-4.51448
136.9163,-316.8,-4.50639
137.2174,-316.8,-4.51165
137.5178,-316.8,-4.4797
137.8186,-316.8,-4.48172
138.1186,-316.8,-4.47303
138.4184,-316.8,-4.4698
138.7198,-316.8,-4.46737
139.0205,-316.8,-4.45039
139.3218,-316.8,-4.44432
139.6226,-316.8,-4.43118
139.9226,-316.8,-4.4336
140.2224,-316.8,-4.41278
140.5222,-316.8,-4.41136
140.8227,-316.8,-4.41238
141.1224,-316.8,-4.40328
141.424,-316.8,-4.40065
141.7239,-316.8,-4.38245
142.0247,-316.8,-4.39337
142.3279,-316.8,-4.36891
142.6282,-316.8,-4.38609
142.9293,-316.8,-4.37093
143.2313,-316.8,-4.35435
143.5326,-316.8,-4.35859
143.8327,-316.8,-4.35617
144.1352,-316.8,-4.34606
144.4343,-316.8,-4.3406
144.7356,-316.8,-4.34019
145.0362,-316.8,-4.33352
145.3362,-316.8,-4.3218
145.6359,-316.8,-4.32301
145.9364,-316.8,-4.3125
146.2366,-316.8,-4.30319
146.5385,-316.8,-4.30501
146.8392,-316.8,-4.30097
147.1399,-316.8,-4.29814
147.4405,-316.8,-4.29147
147.7404,-316.8,-4.28924
148.0403,-316.8,-4.28196
148.3422,-316.8,-4.28378
148.6427,-316.8,-4.27974
148.9444,-316.8,-4.26397
149.2459,-316.8,-4.26114
149.5456,-316.8,-4.25447
149.8472,-316.8,-4.25346
150.1474,-316.8,-4.25427
150.4502,-316.8,-4.25325
150.7498,-316.8,-4.25184
151.0498,-316.8,-4.24678
151.3507,-316.8,-4.2391
151.6514,-316.8,-4.24517
151.9521,-316.8,-4.23304
152.2523,-316.8,-4.23081
152.5516,-316.8,-4.22596
152.8514,-316.8,-4.21828
153.1515,-316.8,-4.21524
153.4516,-316.8,-4.21666
153.7525,-316.8,-4.2114
154.0528,-316.8,-4.20554
154.3531,-316.8,-4.20129
154.6539,-316.8,-4.19826
154.9535,-316.8,-4.19624
155.256,-316.8,-4.19907
155.5572,-316.8,-4.18512
155.8573,-316.8,-4.18411
156.1569,-316.8,-4.17804
156.4569,-316.8,-4.18613
156.7583,-316.8,-4.18047
157.0595,-316.8,-4.16995
157.3594,-316.8,-4.17238
157.6613,-316.8,-4.16652
157.9606,-316.8,-4.15661
158.2625,-316.8,-4.17177
158.5628,-316.8,-4.15681
158.8638,-316.8,-4.1554
159.1657,-316.8,-4.14751
159.4679,-316.8,-4.15762
159.7686,-316.8,-4.15014
160.069,-316.8,-4.14792
160.3695,-316.8,-4.14751
160.672,-316.8,-4.137
160.9726,-316.8,-4.13801
161.2725,-316.8,-4.1374
161.5731,-316.8,-4.12992
161.8751,-316.8,-4.13073
162.1745,-316.8,-4.14529
162.4746,-316.8,-4.12305
162.7752,-316.8,-4.11617
163.0752,-316.8,-4.11455
163.3757,-316.8,-4.11172
163.6762,-316.8,-4.10182
163.9759,-316.8,-4.10323
164.2764,-316.8,-4.09737
164.5779,-316.8,-4.10161
164.8783,-316.8,-4.09272
165.1793,-316.8,-4.09413
165.4785,-316.8,-4.09151
165.7798,-316.8,-4.09757
166.0809,-316.8,-4.09494
166.3825,-316.8,-4.08726
166.6854,-316.8,-4.09272
166.9849,-316.8,-4.08605
167.2858,-316.8,-4.09009
167.5863,-316.8,-4.08827
167.8866,-316.8,-4.07614
168.1866,-316.8,-4.07614
168.487,-316.8,-4.06765
168.7876,-316.8,-4.07452
169.0877,-316.8,-4.06724
169.3878,-316.8,-4.06805
169.6881,-316.8,-4.06765
169.989,-316.8,-4.05916
170.2893,-316.8,-4.06118
170.5899,-316.8,-4.04925
170.8896,-316.8,-4.05248
171.1903,-316.8,-4.04905
171.4902,-316.8,-4.04905
171.7908,-316.8,-4.04965
172.0909,-316.8,-4.04136
172.3907,-316.8,-4.04622
172.6908,-316.8,-4.03975
172.9909,-316.8,-4.03954
173.2909,-316.8,-4.03671
173.5907,-316.8,-4.03429
173.8933,-316.8,-4.02539
174.193,-316.8,-4.02943
174.4947,-316.8,-4.02195
174.7957,-316.8,-4.01993
175.0958,-316.8,-4.01548
175.3975,-316.8,-4.00962
175.6983,-316.8,-4.01609
175.9979,-316.8,-4.01629
176.2991,-316.8,-4.00537
176.5995,-316.8,-4.008
176.8995,-316.8,-4.01265
177.2009,-316.8,-4.00922
177.5009,-316.8,-3.9989
177.8008,-316.8,-4.00841
178.1022,-316.8,-4.00133
178.4027,-316.8,-3.9985
178.7037,-316.8,-3.99688
179.0039,-316.8,-4.00436
179.3041,-316.8,-3.98677
179.6037,-316.8,-3.9894
179.9061,-316.8,-3.99425
180.2067,-316.8,-3.98839
180.5078,-316.8,-3.9892
180.809,-316.8,-3.99203
181.1093,-316.8,-3.98799
181.4092,-316.8,-3.98273
181.7108,-316.8,-3.97687
182.0118,-316.8,-3.97565
182.3118,-316.8,-3.97181
182.6119,-316.8,-3.97019
182.9127,-316.8,-3.97949
183.2133,-316.8,-3.96494
183.5129,-316.8,-3.97626
183.8127,-316.8,-3.97222
184.1131,-316.8,-3.96736
184.4133,-316.8,-3.9611
184.714,-316.8,-3.96716
185.0156,-316.8,-3.95847
185.3159,-316.8,-3.96029
185.6169,-316.8,-3.96332
185.9187,-316.8,-3.95645
186.2187,-316.8,-3.95382
186.5218,-316.8,-3.95624
186.8244,-316.8,-3.94775
187.1253,-316.8,-3.95543
187.4264,-316.8,-3.94816
187.7257,-316.8,-3.94411
188.0269,-316.8,-3.94411
188.3296,-316.8,-3.94371
188.6296,-316.8,-3.94007
188.9292,-316.8,-3.94573
189.2297,-316.8,-3.94067
189.5289,-316.8,-3.94391
189.83,-316.8,-3.94249
190.1304,-316.8,-3.9334
190.4303,-316.8,-3.93643
190.7331,-316.8,-3.93481
191.0331,-316.8,-3.93562
191.3328,-316.8,-3.93481
191.6347,-316.8,-3.92794
191.9339,-316.8,-3.93036
192.2346,-316.8,-3.92571
192.5348,-316.8,-3.9243
192.8354,-316.8,-3.91661
193.1353,-316.8,-3.9241
193.4357,-316.8,-3.92612
193.7355,-316.8,-3.91803
194.0364,-316.8,-3.91965
194.3358,-316.8,-3.92167
194.6361,-316.8,-3.91358
194.9368,-316.8,-3.91318
195.2385,-316.8,-3.91136
195.538,-316.8,-3.90873
195.839,-316.8,-3.90711
196.1391,-316.8,-3.9063
196.4399,-316.8,-3.90185
196.7403,-316.8,-3.90448
197.0401,-316.8,-3.90024
197.341,-316.8,-3.90044
197.6411,-316.8,-3.89599
197.9436,-316.8,-3.88588
198.2446,-316.8,-3.89397
198.5458,-316.8,-3.89073
198.8478,-316.8,-3.89357
199.1479,-316.8,-3.89538
199.4484,-316.8,-3.8972
199.7487,-316.8,-3.89175
200.0479,-316.8,-3.88265
200.3479,-316.8,-3.88487
200.648,-316.8,-3.88083
200.9488,-316.8,-3.88891
201.2511,-316.8,-3.88123
201.5511,-316.8,-3.88629
201.851,-316.8,-3.88548
202.1511,-316.8,-3.88244
202.4524,-316.8,-3.87719
202.7535,-316.8,-3.86789
203.0536,-316.8,-3.8784
203.3535,-316.8,-3.88265
203.6548,-316.8,-3.86425
203.9542,-316.8,-3.87476
204.2548,-316.8,-3.86566
204.5544,-316.8,-3.87658
204.8562,-316.8,-3.86809
205.1571,-316.8,-3.87193
205.4586,-316.8,-3.86364
205.759,-316.8,-3.86789
206.0618,-316.8,-3.86708
206.3628,-316.8,-3.86142
206.6636,-316.8,-3.86324
206.9636,-316.8,-3.86243
207.264,-316.8,-3.86445
207.5654,-316.8,-3.86344
207.8663,-316.8,-3.86526
208.1672,-316.8,-3.85434
208.4689,-316.8,-3.85555
208.7699,-316.8,-3.85737
209.0701,-316.8,-3.85818
209.371,-316.8,-3.85838
209.6711,-316.8,-3.85131
209.9712,-316.8,-3.8509
210.2713,-316.8,-3.84929
210.5717,-316.8,-3.85434
210.8711,-316.8,-3.83736
211.173,-316.8,-3.84464
211.4736,-316.8,-3.84625
211.7735,-316.8,-3.83857
212.0753,-316.8,-3.83837
212.375,-316.8,-3.83453
212.675,-316.8,-3.83736
212.9769,-316.8,-3.84039
213.276,-316.8,-3.8323
213.578,-316.8,-3.82705
213.8781,-316.8,-3.83999
214.1785,-316.8,-3.83352
214.4791,-316.8,-3.83736
214.7791,-316.8,-3.83372
215.079,-316.8,-3.8323
215.3799,-316.8,-3.82988
215.6803,-316.8,-3.83291
215.9804,-316.8,-3.83109
216.2813,-316.8,-3.82502
216.5813,-316.8,-3.82442
216.8813,-316.8,-3.82442
217.1813,-316.8,-3.82098
217.4813,-316.8,-3.82543
217.7844,-316.8,-3.81977
218.0842,-316.8,-3.81795
218.3849,-316.8,-3.81815
218.686,-316.8,-3.81855
218.9852,-316.8,-3.8135
219.2872,-316.8,-3.81229
219.5871,-316.8,-3.81471
219.8891,-316.8,-3.80946
220.1901,-316.8,-3.81188
220.4902,-316.8,-3.80197
220.7904,-316.8,-3.81107
221.0923,-316.8,-3.81876
221.3934,-316.8,-3.81168
221.6942,-316.8,-3.80218
221.996,-316.8,-3.80602
222.2961,-316.8,-3.8044
222.5962,-316.8,-3.79813
222.8967,-316.8,-3.79975
223.1977,-316.8,-3.8042
223.499,-316.8,-3.80137
223.7994,-316.8,-3.79894
224.0999,-316.8,-3.79712
224.3996,-316.8,-3.79611
224.7002,-316.8,-3.79348
225.0013,-316.8,-3.79106
225.3027,-316.8,-3.79267
225.6034,-316.8,-3.79267
225.9065,-316.8,-3.79389
226.2083,-316.8,-3.79207
226.5084,-316.8,-3.78802
226.809,-316.8,-3.79267
227.1092,-316.8,-3.79085
227.4105,-316.8,-3.78499
227.7103,-316.8,-3.78742
228.0113,-316.8,-3.786
228.3113,-316.8,-3.78722
228.6115,-316.8,-3.786
228.9119,-316.8,-3.77872
229.2122,-316.8,-3.78358
229.5133,-316.8,-3.78722
229.8134,-316.8,-3.78479
230.1139,-316.8,-3.77893
230.4137,-316.8,-3.77326
230.7135,-316.8,-3.78014
231.0133,-316.8,-3.77246
231.3138,-316.8,-3.77771
231.6132,-316.8,-3.77246
231.9134,-316.8,-3.78297
232.2162,-316.8,-3.77751
232.5164,-316.8,-3.76578
232.8178,-316.8,-3.76983
233.1187,-316.8,-3.77832
233.4184,-316.8,-3.76659
233.7195,-316.8,-3.77043
234.0204,-316.8,-3.76861
234.3207,-316.8,-3.76336
234.6225,-316.8,-3.76902
234.9243,-316.8,-3.77003
235.2247,-316.8,-3.767
235.5248,-316.8,-3.76275
235.8252,-316.8,-3.76619
236.1265,-316.8,-3.76457
236.4263,-316.8,-3.76922
236.7272,-316.8,-3.7581
237.0274,-316.8,-3.76275
237.3276,-316.8,-3.75972
237.6281,-316.8,-3.7579
237.9286,-316.8,-3.75931
238.2286,-316.8,-3.76012
238.5288,-316.8,-3.75972
238.8285,-316.8,-3.75102
239.1305,-316.8,-3.75871
239.4315,-316.8,-3.75588
239.7332,-316.8,-3.75527
240.0323,-316.8,-3.75203
240.336,-316.8,-3.75244
240.6353,-316.8,-3.75406
240.9358,-316.8,-3.75871
241.2357,-316.8,-3.75588
241.5355,-316.8,-3.75466
241.8364,-316.8,-3.7581
242.1368,-316.8,-3.74718
242.4374,-316.8,-3.75042
242.7383,-316.8,-3.74779
243.0392,-316.8,-3.74334
243.3389,-316.8,-3.74476
243.6393,-316.8,-3.74011
243.9386,-316.8,-3.74476
244.2387,-316.8,-3.74193
244.5406,-316.8,-3.74091
244.841,-316.8,-3.73788
245.1423,-316.8,-3.73788
245.4416,-316.8,-3.73566
245.7419,-316.8,-3.73465
246.0414,-316.8,-3.73262
246.3424,-316.8,-3.73222
246.6425,-316.8,-3.73323
246.9429,-316.8,-3.7306
247.2443,-316.8,-3.73202
247.5436,-316.8,-3.73141
247.8463,-316.8,-3.73141
248.1463,-316.8,-3.7304
248.4479,-316.8,-3.73525
248.7493,-316.8,-3.73323
249.0492,-316.8,-3.73121
249.3493,-316.8,-3.72676
249.6493,-316.8,-3.72514
249.9491,-316.8,-3.7207
250.2501,-316.8,-3.71908
250.5495,-316.8,-3.72434
250.8497,-316.8,-3.72474
251.1504,-316.8,-3.72676
251.4512,-316.8,-3.72636
251.7516,-316.8,-3.7211
252.0544,-316.8,-3.71261
252.3553,-316.8,-3.71281
252.6545,-316.8,-3.71847
252.9544,-316.8,-3.70856
253.2554,-316.8,-3.71605
253.5559,-316.8,-3.7118
253.8565,-316.8,-3.70776
254.1575,-316.8,-3.71059
254.4586,-316.8,-3.70856
254.7595,-316.8,-3.71261
255.0615,-316.8,-3.71322
255.3617,-316.8,-3.7116
255.6626,-316.8,-3.7114
255.9631,-316.8,-3.70755
256.2632,-316.8,-3.70675
256.5641,-316.8,-3.7122
256.866,-316.8,-3.70573
257.1671,-316.8,-3.71281
257.4687,-316.8,-3.70978
257.7686,-316.8,-3.71665
258.0686,-316.8,-3.71038
258.3695,-316.8,-3.71524
258.6691,-316.8,-3.70654
258.9688,-316.8,-3.71281
259.2691,-316.8,-3.70634
259.5705,-316.8,-3.69846
259.8717,-316.8,-3.70654
260.1754,-316.8,-3.70088
260.4755,-316.8,-3.70412
260.7772,-316.8,-3.70351
261.0767,-316.8,-3.69562
261.3767,-316.8,-3.69744
261.6766,-316.8,-3.69825
261.9776,-316.8,-3.70209
262.2785,-316.8,-3.69381
262.5795,-316.8,-3.693
262.8813,-316.8,-3.69603
263.182,-316.8,-3.69542
263.4817,-316.8,-3.69765
263.7818,-316.8,-3.69522
264.0824,-316.8,-3.69421
264.3839,-316.8,-3.69259
264.6841,-316.8,-3.68632
264.9837,-316.8,-3.68188
265.284,-316.8,-3.68572
265.5848,-316.8,-3.6839
265.8846,-316.8,-3.68208
266.1859,-316.8,-3.68855
266.4868,-316.8,-3.68511
266.787,-316.8,-3.68511
267.0885,-316.8,-3.6839
267.3888,-316.8,-3.6837
267.6891,-316.8,-3.6845
267.9906,-316.8,-3.68349
268.2917,-316.8,-3.68127
268.5937,-316.8,-3.67824
268.8955,-316.8,-3.67945
269.1946,-316.8,-3.67581
269.4952,-316.8,-3.68046
269.7946,-316.8,-3.67621
270.0959,-316.8,-3.67621
270.3957,-316.8,-3.6748
270.6967,-316.8,-3.68349
270.9966,-316.8,-3.67803
271.2971,-316.8,-3.67824
271.5985,-316.8,-3.67581
271.9001,-316.8,-3.67096
272.1998,-316.8,-3.67237
272.501,-316.8,-3.67662
272.802,-316.8,-3.67217
273.1017,-316.8,-3.67136
273.4017,-316.8,-3.6653
273.702,-316.8,-3.66651
274.0018,-316.8,-3.66873
274.3043,-316.8,-3.66712
274.6037,-316.8,-3.66853
274.9041,-316.8,-3.66793
275.2044,-316.8,-3.67015
275.5043,-316.8,-3.6744
275.8042,-316.8,-3.66894
276.104,-316.8,-3.66611
276.4044,-316.8,-3.66954
276.7038,-316.8,-3.66772
277.0043,-316.8,-3.65984
277.3058,-316.8,-3.66348
277.6074,-316.8,-3.66085
277.9071,-316.8,-3.66408
278.2078,-316.8,-3.66469
278.5093,-316.8,-3.66004
278.8092,-316.8,-3.65802
279.1101,-316.8,-3.66348
279.4101,-316.8,-3.65984
279.7097,-316.8,-3.65903
280.0098,-316.8,-3.65579
280.3119,-316.8,-3.6566
280.6155,-316.8,-3.65964
280.9166,-316.8,-3.6564
281.2168,-316.8,-3.65458
281.5169,-316.8,-3.65397
281.817,-316.8,-3.65478
282.1184,-316.8,-3.66267
282.4193,-316.8,-3.65458
282.7214,-316.8,-3.65236
283.0218,-316.8,-3.65377
283.322,-316.8,-3.64589
283.622,-316.8,-3.6564
283.9221,-316.8,-3.65296
284.222,-316.8,-3.64831
284.522,-316.8,-3.64366
284.8229,-316.8,-3.64387
285.1239,-316.8,-3.65054
285.4244,-316.8,-3.65054
285.7257,-316.8,-3.64427
286.0274,-316.8,-3.64326
286.3274,-316.8,-3.64508
286.6287,-316.8,-3.64407
286.9297,-316.8,-3.6471
287.2299,-316.8,-3.64932
287.5326,-316.8,-3.64407
287.8319,-316.8,-3.64124
288.1335,-316.8,-3.64124
288.4352,-316.8,-3.64083
288.7377,-316.8,-3.64427
289.0358,-316.8,-3.64285
289.3376,-316.8,-3.64407
289.6371,-316.8,-3.64488
289.9374,-316.8,-3.64407
290.2381,-316.8,-3.64407
290.54,-316.8,-3.63982
290.8411,-316.8,-3.64124
291.1415,-316.8,-3.63901
291.441,-316.8,-3.63719
291.7419,-316.8,-3.64184
292.0421,-316.8,-3.64326
292.3438,-316.8,-3.63638
292.644,-316.8,-3.64002
292.9458,-316.8,-3.63719
293.2449,-316.8,-3.63396
293.5464,-316.8,-3.63436
293.8478,-316.8,-3.63194
294.1489,-316.8,-3.6285
294.4505,-316.8,-3.63032
294.752,-316.8,-3.62809
295.0529,-316.8,-3.63173
295.3533,-316.8,-3.63638
295.6545,-316.8,-3.63416
295.9558,-316.8,-3.63376
296.2559,-316.8,-3.62567
296.5549,-316.8,-3.62951
296.8558,-316.8,-3.62769
297.1566,-316.8,-3.62648
297.4564,-316.8,-3.62304
297.7559,-316.8,-3.62729
298.0566,-316.8,-3.62648
298.3575,-316.8,-3.62648
298.6578,-316.8,-3.62162
298.958,-316.8,-3.61778
299.2599,-316.8,-3.619
299.561,-316.8,-3.62264
299.8636,-316.8,-3.62162
300.1651,-316.8,-3.61879
300.4662,-316.8,-3.62243
300.7669,-316.8,-3.61697
301.0673,-316.8,-3.62162
301.3689,-316.8,-3.62041
301.67,-316.8,-3.61515
301.973,-316.8,-3.62466
302.2744,-316.8,-3.61738
302.5741,-316.8,-3.61576
302.874,-316.8,-3.61232
303.1745,-316.8,-3.61313
303.4752,-316.8,-3.61536
303.776,-316.8,-3.61192
304.076,-316.8,-3.61596
304.3775,-316.8,-3.60909
304.6781,-316.8,-3.61374
304.979,-316.8,-3.61435
305.2799,-316.8,-3.61556
305.5797,-316.8,-3.61152
305.8799,-316.8,-3.60687
306.1795,-316.8,-3.61536
306.4809,-316.8,-3.60788
306.7814,-316.8,-3.6099
307.0823,-316.8,-3.60747
307.3823,-316.8,-3.6101
307.6822,-316.8,-3.60848
307.9822,-316.8,-3.60788
308.2831,-316.8,-3.61192
308.5841,-316.8,-3.60929
308.886,-316.8,-3.60666
309.1871,-316.8,-3.60666
309.4894,-316.8,-3.60646
309.7893,-316.8,-3.60626
310.0911,-316.8,-3.60828
310.3922,-316.8,-3.60868
310.6944,-316.8,-3.60747
310.9971,-316.8,-3.60626
311.2991,-316.8,-3.60424
311.6002,-316.8,-3.6004
311.9001,-316.8,-3.59837
312.2007,-316.8,-3.60444
312.5018,-316.8,-3.6006
312.8016,-316.8,-3.59999
313.1022,-316.8,-3.59494
313.4022,-316.8,-3.59817
313.7036,-316.8,-3.59696
314.006,-316.8,-3.59453
314.3081,-316.8,-3.59473
314.6088,-316.8,-3.59918
314.9095,-316.8,-3.59352
315.2108,-316.8,-3.58907
315.5106,-316.8,-3.59655
315.8111,-316.8,-3.59393
316.1111,-316.8,-3.59008
316.4117,-316.8,-3.59089
316.7122,-316.8,-3.5919
317.0131,-316.8,-3.58847
317.3141,-316.8,-3.59635
317.6141,-316.8,-3.59494
317.9141,-316.8,-3.59312
318.2147,-316.8,-3.58826
318.5152,-316.8,-3.58927
318.8161,-316.8,-3.58725
319.1165,-316.8,-3.58422
319.418,-316.8,-3.58139
319.7183,-316.8,-3.5824
320.0196,-316.8,-3.58078
320.3206,-316.8,-3.58503
320.6202,-316.8,-3.58301
320.9215,-316.8,-3.58483
321.2235,-316.8,-3.58321
321.5247,-316.8,-3.57957
321.8248,-316.8,-3.58341
322.1263,-316.8,-3.58361
322.4273,-316.8,-3.58382
322.7273,-316.8,-3.582
323.0288,-316.8,-3.58301
323.3292,-316.8,-3.582
323.6301,-316.8,-3.57997
323.9316,-316.8,-3.58301
324.2324,-316.8,-3.57815
324.533,-316.8,-3.58624
324.8334,-316.8,-3.58119
325.1333,-316.8,-3.58038
325.4342,-316.8,-3.57876
325.7349,-316.8,-3.58119
326.0346,-316.8,-3.57937
326.3352,-316.8,-3.57593
326.6372,-316.8,-3.57714
326.9365,-316.8,-3.582
327.2377,-316.8,-3.57937
327.5377,-316.8,-3.57229
327.8378,-316.8,-3.57917
328.1381,-316.8,-3.57654
328.4388,-316.8,-3.58139
328.7402,-316.8,-3.57896
329.0397,-316.8,-3.57937
329.3394,-316.8,-3.57088
329.6401,-316.8,-3.57977
329.942,-316.8,-3.5822
330.2432,-316.8,-3.58099
330.5433,-316.8,-3.57836
330.8462,-316.8,-3.56825
331.1471,-316.8,-3.57815
331.4463,-316.8,-3.5733
331.7493,-316.8,-3.57431
332.0503,-316.8,-3.56966
332.3511,-316.8,-3.56663
332.6538,-316.8,-3.56966
332.9553,-316.8,-3.57168
333.2546,-316.8,-3.56663
333.5566,-316.8,-3.56966
333.8589,-316.8,-3.56845
334.1589,-316.8,-3.5731
334.4594,-316.8,-3.56885
334.7601,-316.8,-3.56117
335.0603,-316.8,-3.5642
335.3598,-316.8,-3.56703
335.6615,-316.8,-3.56542
335.9617,-316.8,-3.56542
336.2631,-316.8,-3.56643
336.5644,-316.8,-3.56663
336.8647,-316.8,-3.5638
337.1654,-316.8,-3.56885
337.4673,-316.8,-3.56845
337.7681,-316.8,-3.56299
338.0683,-316.8,-3.57007
338.3689,-316.8,-3.5731
338.6689,-316.8,-3.56299
338.9691,-316.8,-3.56602
339.2702,-316.8,-3.56481
339.5709,-316.8,-3.56279
339.8711,-316.8,-3.55591
340.1714,-316.8,-3.56097
340.4724,-316.8,-3.56016
340.7725,-316.8,-3.55996
341.0753,-316.8,-3.55874
341.3734,-316.8,-3.56097
341.6753,-316.8,-3.56077
341.9745,-316.8,-3.56056
342.2746,-316.8,-3.55713
342.5763,-316.8,-3.56077
342.877,-316.8,-3.55652
343.177,-316.8,-3.55389
343.4776,-316.8,-3.55814
343.7779,-316.8,-3.55733
344.0778,-316.8,-3.5543
344.3778,-316.8,-3.55814
344.6783,-316.8,-3.55066
344.9794,-316.8,-3.55086
345.2788,-316.8,-3.55025
345.5786,-316.8,-3.55976
345.8796,-316.8,-3.55147
346.1797,-316.8,-3.54864
346.3804,-316.8,-3.54965