File: Tinius-Olsen_Levitation_force/Preprocessed_measures/20231204_1434YBCOs1_sl9_1.txt.csv
Time(s),Displacement(mm),Force(N)
0.0,-276.6,2.9282
0.1448,-276.6,2.92941
0.2458,-276.6,2.92982
0.3457,-276.6,2.93083
0.4456,-276.6,2.91789
0.5466,-276.6,2.93527
0.6464,-276.6,2.92557
0.747,-276.6,2.93265
0.8463,-276.6,2.92537
0.9467,-276.6,2.91627
1.0473,-276.6,2.92436
1.1478,-276.6,2.92779
1.2478,-276.6,2.9286
1.348,-276.6,2.92719
1.4477,-276.6,2.92618
1.5476,-276.6,2.93103
1.648,-276.6,2.92092
1.7477,-276.6,2.93244
1.8477,-276.6,2.928
1.9478,-276.6,2.93042
2.0477,-276.6,2.92153
2.1476,-276.6,2.9286
2.2476,-276.6,2.92375
2.348,-276.6,2.92941
2.4482,-276.6,2.92193
2.548,-276.6,2.9282
2.6481,-276.6,2.92699
2.748,-276.6,2.91768
2.8477,-276.6,2.92597
2.9478,-276.6,2.92335
3.0476,-276.6,2.92476
3.1492,-276.6,2.92719
3.2493,-276.6,2.93062
3.3508,-276.6,2.92941
3.4515,-276.6,2.92597
3.5526,-276.6,2.92779
3.6524,-276.6,2.92901
3.7541,-276.6,2.92355
3.8545,-276.6,2.9284
3.9544,-276.6,2.92941
4.055,-276.6,2.93062
4.1546,-276.6,2.92618
4.2556,-276.6,2.92092
4.3562,-276.6,2.93002
4.4562,-276.6,2.93244
4.5567,-276.6,2.94073
4.6573,-276.6,2.92719
4.7575,-276.6,2.9284
4.8576,-276.6,2.93204
4.9577,-276.6,2.92961
5.0576,-276.6,2.9282
5.1573,-276.6,2.93022
5.2579,-276.6,2.93204
5.3578,-276.6,2.92577
5.4581,-276.6,2.92476
5.558,-276.6,2.91667
5.6583,-276.6,2.92517
5.7597,-276.6,2.9189
5.8595,-276.6,2.91465
5.9596,-276.6,2.93851
6.06,-276.6,2.93083
6.1608,-276.6,2.91809
6.2618,-276.6,2.92881
6.362,-276.6,2.92881
6.4615,-276.6,2.93042
6.5615,-276.6,2.9195
6.6617,-276.6,2.93002
6.7621,-276.6,2.92941
6.8618,-276.6,2.92557
6.9615,-276.6,2.92537
7.0617,-276.6,2.94013
7.1614,-276.6,2.91101
7.262,-276.6,2.93649
7.3614,-276.6,2.92618
7.4621,-276.6,2.92355
7.5621,-276.6,2.92153
7.6619,-276.6,2.93891
7.7619,-276.6,2.93669
7.8618,-276.6,2.92618
7.9614,-276.6,2.92496
8.0623,-276.6,2.9284
8.1614,-276.6,2.93568
8.2624,-276.6,2.92496
8.3635,-276.6,2.92638
8.4634,-276.6,2.94073
8.5636,-276.6,2.92496
8.6642,-276.6,2.93143
8.764,-276.6,2.928
8.8642,-276.6,2.92881
8.9638,-276.6,2.93224
9.0639,-276.6,2.94498
9.1642,-276.6,2.93083
9.2643,-276.6,2.93244
9.3643,-276.6,2.92678
9.4646,-276.6,2.94235
9.5649,-276.6,2.93123
9.6663,-276.6,2.92395
9.7657,-276.6,2.94437
9.8657,-276.6,2.93426
9.9656,-276.6,2.92395
10.066,-276.6,2.93184
10.1657,-276.6,2.92658
10.2657,-276.6,2.93083
10.3659,-276.6,2.91991
10.4657,-276.6,2.92537
10.5657,-276.6,2.92415
10.6674,-276.6,2.92436
10.7679,-276.6,2.93002
10.8674,-276.6,2.93972
10.968,-276.6,2.92496
11.0679,-276.6,2.92375
11.1678,-276.6,2.93912
11.2679,-276.6,2.91101
11.3675,-276.6,2.95064
11.4691,-276.6,2.92335
11.5693,-276.6,2.93952
11.6698,-276.6,2.91
11.7709,-276.6,2.9377
11.8704,-276.6,2.92537
11.9715,-276.6,2.94215
12.0719,-276.6,2.9189
12.1721,-276.433,2.96257
12.2928,-276.069,2.91849
12.3937,-276.0,2.94801
12.4939,-276.0,2.97288
12.5943,-276.0,2.95024
12.6938,-276.0,2.95347
12.7941,-276.0,2.94741
12.8942,-276.0,2.95347
12.9946,-276.0,2.96399
13.095,-276.0,2.94174
13.1954,-276.0,2.96439
13.2953,-276.0,2.95307
13.3962,-276.0,2.96136
13.4956,-276.0,2.94053
13.5962,-276.0,2.95954
13.6957,-276.0,2.95367
13.7956,-276.0,2.94761
13.8956,-276.0,2.97773
13.9957,-276.0,2.94741
14.0968,-276.0,2.94559
14.1968,-276.0,2.95246
14.2984,-276.0,2.95367
14.3988,-276.0,2.947
14.4985,-276.0,2.95125
14.5991,-276.0,2.94498
14.6989,-276.0,2.93689
14.7989,-276.0,2.95206
14.8997,-276.0,2.97106
15.0006,-276.0,2.94579
15.1008,-276.0,2.94437
15.2019,-276.0,2.96156
15.3019,-276.0,2.9472
15.4024,-276.0,2.95044
15.5018,-276.0,2.94579
15.6019,-276.0,2.95206
15.7021,-276.0,2.94862
15.8016,-276.0,2.95468
15.9023,-276.0,2.95509
16.0023,-276.0,2.95084
16.1016,-276.0,2.95529
16.2015,-276.0,2.94862
16.3039,-276.0,2.94377
16.4044,-276.0,2.94882
16.5038,-276.0,2.95185
16.6047,-276.0,2.96378
16.7061,-276.0,2.95024
16.8064,-276.0,2.94579
16.9054,-276.0,2.95428
17.0066,-276.0,2.96257
17.1069,-276.0,2.94174
17.2068,-276.0,2.95287
17.3067,-276.0,2.94559
17.4069,-276.0,2.95044
17.508,-276.0,2.95064
17.608,-276.0,2.95307
17.7077,-276.0,2.95145
17.8089,-276.0,2.95327
17.9094,-276.0,2.95367
18.0104,-276.0,2.95934
18.1104,-276.163,2.95408
18.2318,-276.578,2.89666
18.3316,-277.228,2.92213
18.4331,-277.912,2.88736
18.5327,-278.562,2.86977
18.6327,-279.246,2.84631
18.7335,-279.892,2.85824
18.8326,-280.001,2.85622
18.9334,-280.001,2.8449
19.0334,-280.001,2.84348
19.1334,-280.001,2.84045
19.2343,-280.001,2.84712
19.3341,-280.001,2.85622
19.4345,-280.001,2.82043
19.5351,-280.001,2.84207
19.6358,-280.0,2.83438
19.7374,-280.0,2.84753
19.8382,-280.0,2.84207
19.938,-280.0,2.83317
20.0378,-280.0,2.85177
20.138,-280.0,2.85299
20.2379,-280.0,2.82448
20.3377,-280.0,2.85258
20.438,-280.0,2.83479
20.5379,-280.0,2.83843
20.6379,-280.0,2.83742
20.738,-280.0,2.82185
20.8379,-280.0,2.85501
20.9375,-280.0,2.82731
21.0377,-280.0,2.8267
21.1379,-280.0,2.84389
21.238,-280.0,2.86229
21.3404,-280.0,2.82347
21.4398,-280.0,2.85582
21.5405,-280.0,2.84085
21.6398,-280.0,2.83479
21.7405,-280.0,2.8635
21.8405,-280.0,2.82286
21.9406,-280.0,2.84712
22.0406,-280.0,2.88635
22.1414,-280.0,2.85137
22.241,-280.0,2.81538
22.341,-280.0,2.81801
22.4409,-280.0,2.82266
22.541,-280.0,2.86107
22.6414,-280.0,2.83984
22.7424,-280.0,2.84288
22.8421,-280.0,2.87058
22.942,-280.0,2.83479
23.042,-280.0,2.84753
23.142,-280.0,2.83964
23.2427,-280.0,2.84146
23.343,-280.0,2.84005
23.4431,-280.0,2.85015
23.5433,-280.0,2.84025
23.6433,-280.0,2.84267
23.7432,-280.0,2.83378
23.8428,-280.0,2.8449
23.9428,-280.0,2.84591
24.0431,-280.0,2.8362
24.143,-280.0,2.85339
24.2429,-280.0,2.83519
24.3429,-280.0,2.86653
24.4431,-280.0,2.81841
24.5435,-280.0,2.85946
24.6446,-280.0,2.84854
24.745,-280.0,2.86451
24.8451,-280.0,2.83661
24.9446,-280.0,2.84995
25.0459,-280.0,2.84833
25.1458,-280.0,2.84106
25.2461,-280.0,2.86249
25.3458,-280.0,2.82367
25.4455,-280.0,2.8542
25.5463,-280.0,2.8358
25.6459,-280.0,2.85157
25.7456,-280.0,2.84186
25.8464,-280.0,2.84793
25.9456,-280.0,2.84732
26.0456,-280.0,2.86633
26.1458,-280.0,2.82347
26.2458,-280.0,2.85723
26.3459,-280.0,2.82994
26.4458,-280.0,2.85157
26.5476,-280.0,2.85966
26.6479,-280.0,2.83762
26.7489,-280.0,2.86047
26.8489,-280.0,2.83297
26.9497,-280.0,2.84186
27.0501,-280.0,2.86754
27.1496,-280.0,2.82529
27.2504,-280.0,2.84692
27.3503,-280.0,2.84914
27.4498,-280.0,2.8356
27.5499,-280.0,2.83034
27.6505,-280.0,2.85622
27.7502,-280.0,2.82205
27.8509,-280.0,2.83823
27.9517,-280.0,2.84692
28.0524,-280.0,2.84955
28.1523,-280.0,2.84409
28.2516,-280.0,2.84085
28.3528,-280.0,2.85339
28.4534,-280.0,2.83337
28.553,-280.0,2.84005
28.6528,-280.0,2.84833
28.7535,-280.0,2.83398
28.8535,-280.0,2.83499
28.9529,-280.0,2.83337
29.0528,-280.0,2.84389
29.1535,-280.0,2.83903
29.2531,-280.0,2.83519
29.3535,-280.0,2.84207
29.4527,-280.0,2.84995
29.5528,-280.0,2.83135
29.6535,-280.0,2.84389
29.753,-280.0,2.83681
29.8526,-280.0,2.85339
29.9536,-280.0,2.83762
30.0541,-280.0,2.84348
30.1547,-280.0,2.84247
30.2551,-280.0,2.84874
30.3557,-280.0,2.87401
30.4556,-280.0,2.84854
30.5559,-280.0,2.84793
30.6559,-280.0,2.84874
30.7558,-280.0,2.83823
30.8558,-280.0,2.84692
30.9559,-280.0,2.84429
31.0559,-280.0,2.8263
31.1563,-280.0,2.84065
31.2558,-280.0,2.84874
31.3559,-280.0,2.84712
31.4559,-280.0,2.83499
31.5561,-280.0,2.85642
31.6558,-280.0,2.84449
31.7559,-280.0,2.86572
31.8559,-280.0,2.84631
31.9559,-280.0,2.85056
32.0558,-280.0,2.84227
32.1559,-280.0,2.8633
32.2558,-280.158,2.83297
32.3766,-280.538,2.80648
32.4779,-281.224,2.81821
32.5782,-281.907,2.82367
32.6781,-282.557,2.78606
32.7795,-283.241,2.7986
32.8806,-283.924,2.799
32.9798,-284.574,2.77231
33.0813,-285.258,2.7529
33.184,-285.941,2.75351
33.2817,-286.591,2.74401
33.3834,-287.274,2.73167
33.4832,-287.924,2.70964
33.5829,-288.607,2.71732
33.6837,-289.257,2.67729
33.7838,-289.94,2.67587
33.8845,-290.59,2.66515
33.9843,-291.273,2.65444
34.0843,-291.924,2.65221
34.1838,-292.607,2.62815
34.2847,-293.29,2.59661
34.3847,-293.939,2.58832
34.4851,-294.623,2.57498
34.5855,-295.273,2.54162
34.6851,-295.956,2.51068
34.7854,-296.605,2.48763
34.8855,-297.289,2.46095
34.9852,-297.938,2.44093
35.0865,-298.622,2.38796
35.1859,-299.305,2.36956
35.286,-299.955,2.32993
35.386,-300.605,2.28585
35.4859,-301.288,2.2351
35.5859,-301.972,2.20033
35.686,-302.621,2.15403
35.7859,-303.271,2.07133
35.8859,-303.954,2.04242
35.986,-304.604,1.96033
36.0859,-305.287,1.90878
36.1859,-305.937,1.83093
36.2859,-306.62,1.74662
36.3867,-307.304,1.67222
36.4878,-307.953,1.57881
36.5881,-308.637,1.47933
36.6891,-309.321,1.37986
36.7905,-309.97,1.26239
36.8903,-310.653,1.14431
36.99,-311.303,1.0141
37.0898,-311.987,0.861855
37.1904,-312.636,0.706576
37.29,-313.319,0.542401
37.3905,-314.003,0.365892
37.4911,-314.652,0.143892
37.5909,-315.302,-0.0712344
37.6926,-315.64,-0.303546
37.7917,-315.641,-0.123601
37.8917,-315.641,0.138231
37.9924,-315.641,0.241143
38.0933,-315.641,0.309685
38.1935,-315.641,0.362455
38.2935,-315.641,0.384291
38.3939,-315.641,0.411384
38.4938,-315.641,0.452428
38.5944,-315.64,0.45627
38.6945,-315.64,0.480734
38.7942,-315.64,0.492259
38.894,-315.64,0.504592
38.9939,-315.64,0.520363
39.094,-315.64,0.535324
39.1941,-315.64,0.542603
39.2939,-315.64,0.553319
39.3945,-315.64,0.55898
39.4937,-315.64,0.569898
39.594,-315.64,0.577986
39.6951,-315.64,0.579401
39.7959,-315.64,0.585669
39.8973,-315.64,0.592139
39.9981,-315.64,0.603057
40.0981,-315.64,0.602855
40.1982,-315.64,0.618221
40.2997,-315.64,0.618827
40.3996,-315.64,0.626915
40.4988,-315.64,0.637631
40.5992,-315.64,0.634396
40.7,-315.64,0.636013
40.8006,-315.64,0.645718
40.9009,-315.64,0.653199
41.0011,-315.64,0.645314
41.1017,-315.64,0.654816
41.2026,-315.64,0.655625
41.3025,-315.64,0.670385
41.402,-315.64,0.672204
41.5028,-315.64,0.656838
41.6034,-315.64,0.679685
41.7031,-315.64,0.681101
41.8033,-315.64,0.686357
41.9028,-315.64,0.689188
42.0036,-315.64,0.688986
42.1034,-315.64,0.691008
42.2036,-315.64,0.698489
42.3032,-315.64,0.700511
42.4034,-315.64,0.703948
42.5028,-315.64,0.707587
42.6036,-315.64,0.708194
42.7033,-315.64,0.706576
42.8037,-315.64,0.71709
42.9049,-315.64,0.706778
43.0054,-315.64,0.713046
43.1053,-315.64,0.720729
43.2055,-315.64,0.723358
43.3054,-315.64,0.734276
43.4053,-315.64,0.726188
43.5063,-315.64,0.725582
43.6063,-315.64,0.730434
43.7059,-315.64,0.737511
43.806,-315.64,0.741756
43.9061,-315.64,0.735691
44.0066,-315.64,0.734073
44.1063,-315.64,0.737106
44.2062,-315.64,0.744587
44.3057,-315.64,0.747418
44.4063,-315.64,0.742161
44.506,-315.64,0.746205
44.608,-315.64,0.750248
44.7085,-315.64,0.747822
44.8079,-315.64,0.757931
44.9095,-315.64,0.753281
45.0089,-315.64,0.756112
45.1097,-315.64,0.764806
45.209,-315.64,0.754899
45.3102,-315.64,0.760358
45.4104,-315.64,0.761773
45.5102,-315.64,0.763795
45.6101,-315.64,0.781992
45.7101,-315.64,0.763593
45.8105,-315.64,0.758336
45.9105,-315.64,0.786642
46.0097,-315.64,0.758538
46.1109,-315.64,0.7735
46.2111,-315.64,0.783609
46.311,-315.64,0.759145
46.4111,-315.64,0.782598
46.5111,-315.64,0.783407
46.6113,-315.64,0.770467
46.711,-315.64,0.781183
46.8111,-315.64,0.785024
46.9114,-315.64,0.778352
47.0113,-315.64,0.790281
47.1119,-315.64,0.78462
47.2121,-315.64,0.784418
47.3125,-315.64,0.790483
47.4119,-315.64,0.795336
47.5122,-315.64,0.798571
47.6124,-315.64,0.794729
47.712,-315.64,0.798975
47.8126,-315.64,0.809287
47.912,-315.64,0.792101
48.0124,-315.64,0.801604
48.1123,-315.64,0.792303
48.2119,-315.64,0.793314
48.3129,-315.64,0.797762
48.4133,-315.64,0.803828
48.5134,-315.64,0.806254
48.6128,-315.64,0.788664
48.7136,-315.64,0.813937
48.8139,-315.64,0.807063
48.9138,-315.64,0.796751
49.0144,-315.64,0.820205
49.1143,-315.64,0.798166
49.2149,-315.64,0.808276
49.3149,-315.64,0.814139
49.4152,-315.64,0.81697
49.5153,-315.64,0.80221
49.6164,-315.64,0.829303
49.7162,-315.64,0.815959
49.816,-315.64,0.811106
49.916,-315.64,0.798571
50.0161,-315.64,0.82627
50.1161,-315.64,0.815554
50.2159,-315.64,0.826675
50.3161,-315.64,0.809489
50.4172,-315.64,0.819194
50.5171,-315.64,0.818789
50.6174,-315.64,0.822631
50.7181,-315.64,0.827079
50.8181,-315.64,0.827888
50.918,-315.64,0.828899
51.0197,-315.64,0.820811
51.1191,-315.64,0.831729
51.2192,-315.64,0.822833
51.3193,-315.64,0.826877
51.4188,-315.64,0.84568
51.5198,-315.64,0.823035
51.6194,-315.64,0.839615
51.7188,-315.64,0.813735
51.8188,-315.64,0.849724
51.9193,-315.64,0.825664
52.0203,-315.64,0.847298
52.1213,-315.64,0.833751
52.2208,-315.64,0.842041
52.3223,-315.64,0.84932
52.4222,-315.64,0.827888
52.5231,-315.64,0.845478
52.6247,-315.64,0.834156
52.7243,-315.64,0.82809
52.8242,-315.64,0.850128
52.9254,-315.64,0.823844
53.0267,-315.64,0.850331
53.1261,-315.64,0.841434
53.2261,-315.64,0.864686
53.3265,-315.64,0.826675
53.4261,-315.64,0.854576
53.5261,-315.64,0.842647
53.6271,-315.64,0.843658
53.7285,-315.64,0.857407
53.8282,-315.64,0.857811
53.9281,-315.64,0.841636
54.0285,-315.64,0.861451
54.1282,-315.64,0.859833
54.2284,-315.64,0.843456
54.328,-315.64,0.865292
54.4285,-315.64,0.830516
54.5285,-315.64,0.869538
54.6283,-315.64,0.841232
54.7285,-315.64,0.869336
54.8286,-315.64,0.844871
54.9282,-315.64,0.8568
55.0286,-315.64,0.853565
55.1285,-315.64,0.865494
55.2283,-315.64,0.857205
55.3282,-315.64,0.856194
55.4284,-315.64,0.862057
55.5284,-315.64,0.866101
55.6284,-315.64,0.858014
55.7285,-315.64,0.865697
55.8279,-315.64,0.88268
55.9285,-315.64,0.858822
56.0286,-315.64,0.856598
56.1284,-315.64,0.877221
56.2279,-315.64,0.852757
56.3282,-315.64,0.867516
56.4285,-315.64,0.881669
56.5286,-315.64,0.857407
56.628,-315.64,0.884096
56.7283,-315.64,0.865899
56.8292,-315.64,0.864888
56.9303,-315.64,0.880254
57.0306,-315.64,0.86327
57.1309,-315.64,0.863675
57.2312,-315.64,0.868123
57.3312,-315.64,0.887937
57.4318,-315.64,0.866303
57.5312,-315.64,0.87621
57.6314,-315.64,0.862259
57.7316,-315.64,0.896833
57.8315,-315.64,0.880052
57.9311,-315.64,0.870145
58.0314,-315.64,0.875199
58.1316,-315.64,0.876817
58.2315,-315.64,0.883893
58.3321,-315.64,0.878434
58.4328,-315.64,0.877626
58.5328,-315.64,0.877019
58.6323,-315.64,0.898046
58.733,-315.64,0.877626
58.8343,-315.64,0.884096
58.9342,-315.64,0.893598
59.0344,-315.64,0.881063
59.1353,-315.64,0.884702
59.2357,-315.64,0.881467
59.3356,-315.64,0.882276
59.4362,-315.64,0.890566
59.5363,-315.64,0.887937
59.6362,-315.64,0.888544
59.7359,-315.64,0.892587
59.837,-315.64,0.885511
59.9376,-315.64,0.887533
60.0374,-315.64,0.891576
60.1372,-315.64,0.894609
60.2387,-315.64,0.890768
60.3381,-315.64,0.893396
60.4383,-315.64,0.901281
60.539,-315.64,0.881872
60.6398,-315.64,0.902697
60.74,-315.64,0.887937
60.8418,-315.64,0.914828
60.9416,-315.64,0.901888
61.0413,-315.64,0.890566
61.141,-315.64,0.891981
61.2412,-315.64,0.896631
61.3415,-315.64,0.911997
61.4414,-315.64,0.877019
61.5409,-315.64,0.905123
61.6419,-315.64,0.904112
61.7431,-315.64,0.885713
61.8437,-315.64,0.898855
61.9434,-315.64,0.897036
62.0438,-315.64,0.896833
62.1439,-315.64,0.898046
62.2439,-315.64,0.900473
62.3455,-315.64,0.901079
62.4456,-315.64,0.905325
62.5454,-315.64,0.900271
62.6449,-315.64,0.897642
62.7453,-315.64,0.895014
62.8461,-315.64,0.904112
62.9462,-315.64,0.901888
63.0463,-315.64,0.901484
63.1463,-315.64,0.907751
63.2463,-315.64,0.902697
63.3463,-315.64,0.906538
63.4463,-315.64,0.904112
63.5467,-315.64,0.898855
63.6462,-315.64,0.900675
63.7469,-315.64,0.908156
63.8477,-315.64,0.903505
63.9472,-315.64,0.900877
64.0474,-315.64,0.903708
64.1475,-315.64,0.908762
64.2483,-315.64,0.911795
64.3486,-315.64,0.906134
64.4494,-315.64,0.900877
64.5492,-315.64,0.902495
64.6498,-315.64,0.904921
64.7493,-315.64,0.914019
64.8495,-315.64,0.909571
64.9493,-315.64,0.918063
65.0506,-315.64,0.904516
65.1524,-315.64,0.91038
65.2513,-315.64,0.914019
65.3523,-315.64,0.918872
65.452,-315.64,0.913008
65.5519,-315.64,0.912604
65.6525,-315.64,0.907954
65.7523,-315.64,0.911391
65.8521,-315.64,0.915232
65.9525,-315.64,0.918063
66.0521,-315.64,0.908762
66.1522,-315.64,0.918063
66.2522,-315.64,0.915839
66.3523,-315.64,0.910178
66.4523,-315.64,0.916445
66.5523,-315.64,0.912806
66.6523,-315.64,0.924128
66.7528,-315.64,0.925342
66.8521,-315.64,0.921904
66.9523,-315.64,0.926353
67.0521,-315.64,0.921904
67.1528,-315.64,0.923118
67.253,-315.64,0.919478
67.3533,-315.64,0.915434
67.4539,-315.64,0.922107
67.5536,-315.64,0.928374
67.6537,-315.64,0.921904
67.7538,-315.64,0.922107
67.8539,-315.64,0.924331
67.9536,-315.64,0.924331
68.0541,-315.64,0.923522
68.1545,-315.64,0.924937
68.2545,-315.64,0.923724
68.355,-315.64,0.926959
68.4556,-315.64,0.928577
68.5558,-315.64,0.926353
68.6566,-315.64,0.933429
68.7562,-315.64,0.922713
68.856,-315.64,0.929183
68.9562,-315.64,0.931407
69.056,-315.64,0.922713
69.1563,-315.64,0.937068
69.2562,-315.64,0.928577
69.3562,-315.64,0.932216
69.4563,-315.64,0.926959
69.5564,-315.64,0.934642
69.6562,-315.64,0.932216
69.7562,-315.64,0.927566
69.8573,-315.64,0.932014
69.9571,-315.64,0.930396
70.0577,-315.64,0.938686
70.1574,-315.64,0.92979
70.2588,-315.64,0.928779
70.3586,-315.64,0.939697
70.4583,-315.64,0.931003
70.5582,-315.64,0.932418
70.6586,-315.64,0.932014
70.7584,-315.64,0.931812
70.859,-315.64,0.933429
70.9593,-315.64,0.943943
71.0594,-315.64,0.932822
71.1591,-315.64,0.938888
71.2596,-315.64,0.929588
71.3613,-315.64,0.937675
71.4607,-315.64,0.933833
71.5603,-315.64,0.938484
71.66,-315.64,0.936462
71.7608,-315.64,0.939899
71.8603,-315.64,0.944347
71.9614,-315.64,0.934642
72.0616,-315.64,0.945156
72.1614,-315.64,0.939292
72.2617,-315.64,0.941112
72.3612,-315.64,0.941314
72.4614,-315.64,0.938686
72.5611,-315.64,0.940303
72.6622,-315.64,0.932822
72.7633,-315.64,0.933833
72.8644,-315.64,0.938888
72.9649,-315.64,0.94273
73.0642,-315.64,0.950008
73.1643,-315.64,0.939495
73.2648,-315.64,0.938079
73.3651,-315.64,0.934238
73.4661,-315.64,0.943134
73.5668,-315.64,0.941112
73.6663,-315.64,0.944549
73.7663,-315.64,0.935653
73.8664,-315.64,0.935855
73.9664,-315.64,0.949806
74.0664,-315.64,0.943134
74.1663,-315.64,0.953243
74.2663,-315.64,0.945965
74.3663,-315.64,0.944145
74.4668,-315.64,0.948795
74.5663,-315.64,0.952435
74.6662,-315.64,0.942527
74.7663,-315.64,0.950211
74.8664,-315.64,0.948189
74.9664,-315.64,0.947784
75.0664,-315.64,0.941112
75.1663,-315.64,0.947178
75.2663,-315.64,0.950008
75.3664,-315.64,0.946976
75.4663,-315.64,0.945358
75.5663,-315.64,0.948997
75.667,-315.64,0.949402
75.7679,-315.64,0.944954
75.8672,-315.64,0.951019
75.9673,-315.64,0.952232
76.0671,-315.64,0.94556
76.1679,-315.64,0.95385
76.2673,-315.64,0.943943
76.3675,-315.64,0.947178
76.4671,-315.64,0.953243
76.5675,-315.64,0.949402
76.6683,-315.64,0.944549
76.7693,-315.64,0.950413
76.8681,-315.64,0.946571
76.9685,-315.64,0.951221
77.0683,-315.64,0.950211
77.1695,-315.64,0.95203
77.2693,-315.64,0.953445
77.3694,-315.64,0.955467
77.4698,-315.64,0.950817
77.5699,-315.64,0.951828
77.6701,-315.64,0.954659
77.7704,-315.64,0.9585
77.8704,-315.64,0.95567
77.9707,-315.64,0.956074
78.0707,-315.64,0.947784
78.1709,-315.64,0.958702
78.2714,-315.64,0.962544
78.3721,-315.64,0.963555
78.4716,-315.64,0.957894
78.5713,-315.64,0.956074
78.6724,-315.64,0.954052
78.7715,-315.64,0.949604
78.8711,-315.64,0.964768
78.9714,-315.64,0.960118
79.0713,-315.64,0.95567
79.1723,-315.64,0.952435
79.2724,-315.64,0.963959
79.3722,-315.64,0.957085
79.4729,-315.64,0.953648
79.5723,-315.64,0.967801
79.6738,-315.64,0.960926
79.7733,-315.64,0.96315
79.8742,-315.64,0.959915
79.9741,-315.64,0.963555
80.0756,-315.64,0.958096
80.1756,-315.64,0.96962
80.2756,-315.64,0.962948
80.3755,-315.64,0.968609
80.4759,-315.64,0.962342
80.5758,-315.64,0.95385
80.6759,-315.64,0.959107
80.7754,-315.64,0.970429
80.8751,-315.64,0.977303
80.9762,-315.64,0.958298
81.0764,-315.64,0.969823
81.178,-315.64,0.967599
81.2772,-315.64,0.983369
81.3779,-315.64,0.961937
81.4779,-315.64,0.959915
81.5772,-315.64,0.965779
81.678,-315.64,0.971642
81.7777,-315.64,0.96497
81.8786,-315.64,0.961533
81.9788,-315.64,0.96497
82.0788,-315.64,0.958905
82.1784,-315.64,0.972047
82.2785,-315.64,0.967801
82.3785,-315.64,0.976899
82.4784,-315.64,0.959713
82.5786,-315.64,0.972047
82.6786,-315.64,0.966992
82.7789,-315.64,0.968609
82.8796,-315.64,0.969418
82.9795,-315.64,0.968812
83.0799,-315.64,0.970834
83.1798,-315.64,0.968003
83.2811,-315.64,0.971844
83.3795,-315.64,0.977303
83.4799,-315.64,0.973664
83.5792,-315.64,0.970834
83.6805,-315.64,0.977506
83.7811,-315.64,0.964768
83.8804,-315.64,0.967801
83.9801,-315.64,0.970834
84.0812,-315.64,0.96962
84.1815,-315.64,0.97609
84.2824,-315.64,0.970631
84.3841,-315.64,0.97791
84.484,-315.64,0.979325
84.5836,-315.64,0.972047
84.6849,-315.64,0.967801
84.7853,-315.64,0.970834
84.8847,-315.64,0.967599
84.9844,-315.64,0.975079
85.0844,-315.64,0.976899
85.1851,-315.64,0.97973
85.2852,-315.64,0.970834
85.3857,-315.64,0.966588
85.4863,-315.64,0.972451
85.5864,-315.64,0.975686
85.6864,-315.64,0.974068
85.7875,-315.64,0.981347
85.8875,-315.64,0.977101
85.9875,-315.64,0.979123
86.0872,-315.64,0.967599
86.1873,-315.64,0.981549
86.2876,-315.64,0.969216
86.3881,-315.64,0.974271
86.488,-315.64,0.984582
86.5875,-315.64,0.96679
86.6873,-315.64,0.974271
86.7872,-315.64,0.975484
86.8876,-315.64,0.972653
86.9881,-315.64,0.9862
87.089,-315.64,0.962544
87.1888,-315.64,0.981549
87.2887,-315.64,0.976899
87.3889,-315.64,0.978314
87.4888,-315.64,0.974675
87.5888,-315.64,0.989232
87.6887,-315.64,0.990446
87.7889,-315.64,0.958096
87.8887,-315.64,0.976293
87.9883,-315.64,0.979325
88.0888,-315.64,0.980741
88.1885,-315.64,0.965981
88.2889,-315.64,0.992872
88.3883,-315.64,0.964161
88.4887,-315.64,0.992063
88.5889,-315.64,0.964566
88.6888,-315.64,0.997522
88.7883,-315.64,0.967396
88.8886,-315.64,0.994894
88.9885,-315.64,0.977303
89.0889,-315.64,0.983369
89.1886,-315.64,0.968609
89.2886,-315.64,1.00541
89.3886,-315.64,0.971844
89.4886,-315.64,0.973462
89.5882,-315.64,0.997522
89.6885,-315.64,0.991254
89.79,-315.64,0.981954
89.8895,-315.64,0.964161
89.99,-315.64,1.01289
90.0894,-315.64,0.995298
90.1897,-315.64,0.969014
90.2907,-315.64,0.998129
90.3908,-315.64,0.97791
90.4916,-315.64,0.987008
90.5917,-315.64,0.979932
90.6921,-315.64,0.988424
90.7917,-315.64,0.995298
90.8915,-315.64,0.973058
90.9924,-315.64,0.991052
91.0917,-315.64,0.987615
91.1919,-315.64,0.974271
91.2932,-315.64,0.987211
91.3932,-315.64,0.970429
91.4932,-315.64,0.996107
91.5935,-315.64,0.997926
91.6933,-315.64,0.978314
91.7952,-315.64,0.994489
91.8961,-315.64,0.987817
91.9958,-315.64,0.98438
92.0968,-315.64,0.987008
92.1964,-315.64,0.99267
92.2979,-315.64,0.989232
92.398,-315.64,0.987615
92.4974,-315.64,0.986402
92.5978,-315.64,0.993681
92.6991,-315.64,0.994489
92.7986,-315.64,0.990446
92.8989,-315.64,0.983773
92.9987,-315.64,0.987413
93.0989,-315.64,0.988828
93.2001,-315.64,0.987008
93.2994,-315.64,1.00318
93.3996,-315.64,0.988019
93.4998,-315.64,0.985997
93.5999,-315.64,0.980943
93.7001,-315.64,1.00278
93.7999,-315.64,0.997118
93.8993,-315.64,0.988424
93.9996,-315.64,0.997522
94.0999,-315.64,0.990041
94.1998,-315.64,0.987211
94.2998,-315.64,0.984178
94.4004,-315.64,0.992063
94.5009,-315.64,0.987211
94.6008,-315.64,0.993074
94.7012,-315.64,0.985593
94.8012,-315.64,0.990243
94.9018,-315.64,0.985795
95.0022,-315.64,0.9955
95.1018,-315.64,0.994287
95.2016,-315.64,0.992872
95.3024,-315.64,0.989232
95.4033,-315.64,0.992467
95.5042,-315.64,0.993681
95.6039,-315.64,0.99085
95.7034,-315.64,1.00723
95.8039,-315.64,0.994894
95.9037,-315.64,0.988828
96.0043,-315.64,0.987615
96.1049,-315.64,0.992063
96.2043,-315.64,1.00561
96.3053,-315.64,0.997118
96.4065,-315.64,0.991861
96.5076,-315.64,1.01248
96.6073,-315.64,0.972249
96.7074,-315.64,1.0046
96.8073,-315.64,0.996916
96.9078,-315.64,0.980741
97.0073,-315.64,0.995905
97.1075,-315.64,0.989839
97.2078,-315.64,0.980741
97.3075,-315.64,1.01289
97.4093,-315.64,0.97144
97.5115,-315.64,0.988828
97.6125,-315.64,1.01228
97.7127,-315.64,1.00541
97.8134,-315.64,0.983167
97.9151,-315.64,1.01147
98.0149,-315.64,0.997522
98.1151,-315.64,0.988626
98.2149,-315.64,0.996107
98.3143,-315.64,1.0143
98.4145,-315.64,0.993276
98.5145,-315.64,0.996107
98.6144,-315.64,1.01208
98.7146,-315.64,0.998533
98.8144,-315.64,0.99267
98.9149,-315.64,0.994085
99.0152,-315.64,0.995096
99.1144,-315.64,1.00783
99.2145,-315.64,0.9862
99.315,-315.64,1.00662
99.4153,-315.64,0.998331
99.5156,-315.64,0.997926
99.6162,-315.64,0.991861
99.7161,-315.64,1.00237
99.8172,-315.64,1.00864
99.9172,-315.64,0.994489
100.0165,-315.64,0.996309
100.1166,-315.64,1.01349
100.2163,-315.64,0.984178
100.3166,-315.64,1.0046
100.4166,-315.64,0.98903
100.5166,-315.64,1.00662
100.6165,-315.64,0.989435
100.7166,-315.64,1.01107
100.8166,-315.64,0.994691
100.9166,-315.64,0.996916
101.0165,-315.64,0.991456
101.1166,-315.64,1.00035
101.2166,-315.64,0.999544
101.3167,-315.64,0.998533
101.4166,-315.64,0.998533
101.5166,-315.64,1.00622
101.6166,-315.64,0.996511
101.7166,-315.64,1.00278
101.8166,-315.64,1.00965
101.9166,-315.64,0.99914
102.0166,-315.64,0.998735
102.1172,-315.64,0.997522
102.2165,-315.64,0.999342
102.3165,-315.64,1.01188
102.4181,-315.64,1.00116
102.5179,-315.64,0.998331
102.6177,-315.64,1.00521
102.7175,-315.64,1.01147
102.8177,-315.64,1.0048
102.9188,-315.64,1.00197
103.0203,-315.64,1.00702
103.1197,-315.64,1.00601
103.2194,-315.64,1.00925
103.3199,-315.64,1.00278
103.4213,-315.64,1.01066
103.5229,-315.64,1.00379
103.6238,-315.64,1.01087
103.7246,-315.64,0.998129
103.8262,-315.64,1.00622
103.926,-315.64,0.999544
104.0265,-315.64,1.00682
104.1268,-315.64,1.00824
104.2266,-315.64,0.997522
104.3268,-315.64,1.00035
104.4278,-315.64,1.00541
104.5284,-315.64,1.00986
104.6284,-315.64,1.00884
104.7285,-315.64,1.00783
104.8286,-315.64,1.00763
104.9287,-315.64,1.00622
105.0288,-315.64,1.00824
105.1286,-315.64,1.00258
105.2297,-315.64,1.01026
105.3294,-315.64,1.00783
105.4301,-315.64,1.00743
105.5296,-315.64,1.01612
105.6298,-315.64,1.00925
105.7298,-315.64,1.00581
105.8308,-315.64,1.00986
105.9307,-315.64,1.00743
106.0308,-315.64,1.01208
106.1318,-315.64,1.01208
106.2318,-315.64,1.00804
106.3327,-315.64,1.00622
106.4329,-315.64,1.01248
106.5332,-315.64,1.00844
106.6327,-315.64,1.0143
106.7327,-315.64,1.01147
106.8326,-315.64,1.0048
106.9326,-315.64,1.01208
107.0339,-315.64,1.01794
107.1335,-315.64,1.00601
107.2339,-315.64,1.01612
107.334,-315.64,1.01734
107.4337,-315.64,1.0234
107.5343,-315.64,1.01188
107.6342,-315.64,1.01309
107.7351,-315.64,1.01754
107.8349,-315.64,1.01066
107.9346,-315.64,1.00682
108.0359,-315.64,1.01248
108.1358,-315.64,1.01895
108.2359,-315.64,1.01916
108.3365,-315.64,1.01046