File: Tinius-Olsen_Levitation_force/Preprocessed_measures/20231204_1536YBCOs1_sl9_3.txt.csv
Time(s),Displacement(mm),Force(N)
0.0,-267.335,3.02848
0.2415,-267.335,3.02909
0.443,-267.335,3.03071
0.6425,-267.335,3.03273
0.8445,-267.335,3.03738
1.0463,-267.335,3.03334
1.2461,-267.335,3.03475
1.4459,-267.335,3.03394
1.646,-267.335,3.03697
1.8455,-267.335,3.03192
2.0475,-267.335,3.03475
2.2471,-267.335,3.03455
2.448,-267.335,3.03192
2.6479,-267.335,3.03172
2.8477,-267.335,3.03131
3.0496,-267.335,3.04142
3.2496,-267.335,3.03273
3.4499,-267.335,3.0297
3.6513,-267.335,3.02626
3.8506,-267.335,3.02585
4.0514,-267.335,3.03414
4.2505,-267.335,3.03192
4.4506,-267.335,3.03536
4.6514,-267.335,3.03637
4.8508,-267.199,3.07195
5.0719,-267.0,3.05133
5.2718,-267.0,3.05214
5.4725,-267.0,3.0489
5.6723,-267.0,3.04102
5.8717,-267.0,3.04324
6.0732,-267.0,3.04243
6.2727,-267.0,3.0489
6.4732,-267.0,3.04688
6.6725,-267.0,3.04223
6.8731,-267.0,3.04446
7.0726,-267.0,3.04142
7.2737,-267.0,3.04688
7.4739,-267.0,3.04304
7.674,-267.0,3.04102
7.8739,-267.0,3.03859
8.0741,-267.0,3.04183
8.2739,-267.0,3.04668
8.4742,-267.0,3.04729
8.6739,-267.0,3.04223
8.874,-267.0,3.04506
9.0739,-267.0,3.04405
9.2744,-267.0,3.039
9.4739,-267.0,3.04668
9.674,-267.0,3.04466
9.8739,-267.0,3.04102
10.0739,-267.0,3.04405
10.2737,-267.0,3.04021
10.4744,-267.0,3.0485
10.6747,-267.0,3.04304
10.8753,-267.0,3.04122
11.0747,-267.0,3.04587
11.2757,-267.0,3.03758
11.4762,-267.0,3.04466
11.6768,-267.0,3.03637
11.8788,-267.0,3.03859
12.0792,-267.0,3.04365
12.2797,-267.0,3.0394
12.481,-267.0,3.04506
12.6813,-267.0,3.04405
12.8808,-267.0,3.05558
13.0816,-267.0,3.05113
13.2809,-267.146,3.02848
13.5034,-268.211,3.02262
13.7029,-269.578,2.98784
13.9044,-270.0,2.98966
14.1062,-270.0,2.99532
14.3069,-270.0,2.99108
14.5079,-270.0,2.98319
14.7089,-270.0,2.98319
14.909,-270.0,2.98683
15.1088,-270.0,2.98966
15.3107,-270.0,2.98198
15.5119,-270.0,2.98744
15.7118,-270.0,2.98906
15.9116,-270.0,2.98845
16.1125,-270.0,2.98582
16.3125,-270.0,2.98602
16.5133,-270.0,2.98562
16.714,-270.0,2.98521
16.9138,-270.0,2.98764
17.1154,-270.0,2.98461
17.3163,-270.0,2.98926
17.5164,-270.0,2.99027
17.7168,-270.0,2.98946
17.9179,-270.0,2.98845
18.1191,-270.0,2.9834
18.3189,-270.0,2.98643
18.5196,-270.0,2.98865
18.72,-270.0,2.98926
18.9216,-270.0,2.98744
19.1218,-270.0,2.99472
19.3238,-270.0,2.99088
19.5237,-270.0,2.98885
19.7247,-270.0,2.99007
19.9262,-270.0,2.99411
20.1264,-270.0,2.98764
20.327,-270.0,2.99027
20.5281,-270.0,2.98926
20.7288,-270.0,2.98481
20.9291,-270.0,2.98137
21.1295,-270.0,2.98238
21.3299,-270.0,2.98137
21.5315,-270.0,2.98158
21.732,-270.0,2.97976
21.9317,-270.0,2.98724
22.1318,-270.0,2.98238
22.3523,-270.563,2.94356
22.5537,-271.897,2.96136
22.7528,-273.231,2.96479
22.9544,-274.564,2.95549
23.1548,-275.9,2.95994
23.3574,-277.233,2.95388
23.5584,-278.602,2.95226
23.7585,-279.935,2.95145
23.9594,-281.268,2.94923
24.1594,-282.601,2.95408
24.3587,-283.937,2.94579
24.5604,-285.272,2.94882
24.7603,-286.605,2.94114
24.9604,-287.938,2.93164
25.1609,-289.271,2.928
25.3607,-290.604,2.91243
25.561,-291.938,2.89423
25.7616,-293.27,2.8724
25.9614,-294.603,2.84692
26.1617,-295.936,2.80911
26.3619,-297.269,2.7618
26.5619,-298.604,2.69811
26.7619,-299.937,2.62896
26.9619,-301.271,2.55153
27.162,-302.604,2.45063
27.3638,-303.971,2.32912
27.5652,-305.304,2.17991
27.7658,-306.637,2.01391
27.9664,-307.97,1.81274
28.1658,-309.303,1.58366
28.3659,-310.636,1.30525
28.5695,-312.003,0.965577
28.7699,-313.336,0.569696
28.9701,-314.671,0.076766
29.1709,-315.639,-0.986936
29.3715,-315.641,-1.29183
29.5709,-315.641,-1.11896
29.7724,-315.64,-1.0393
29.973,-315.64,-0.983094
30.1731,-315.64,-0.942455
30.3731,-315.64,-0.912936
30.5737,-315.64,-0.888471
30.7737,-315.64,-0.866837
30.9741,-315.64,-0.845608
31.1742,-315.64,-0.825591
31.374,-315.64,-0.812045
31.5741,-315.64,-0.801733
31.7752,-315.64,-0.783739
31.976,-315.64,-0.771405
32.177,-315.64,-0.770394
32.3797,-315.64,-0.754624
32.58,-315.64,-0.740875
32.7804,-315.64,-0.74411
32.9803,-315.64,-0.735821
33.1809,-315.64,-0.725307
33.3812,-315.64,-0.726318
33.5809,-315.64,-0.715804
33.7818,-315.64,-0.702055
33.9818,-315.64,-0.698618
34.1811,-315.64,-0.695585
34.3825,-315.64,-0.688307
34.582,-315.64,-0.676984
34.7819,-315.64,-0.675569
34.9823,-315.64,-0.670919
35.1825,-315.64,-0.665864
35.384,-315.64,-0.661012
35.584,-315.64,-0.660001
35.7841,-315.64,-0.652722
35.984,-315.64,-0.650498
36.1852,-315.64,-0.64241
36.3862,-315.64,-0.63958
36.5862,-315.64,-0.63493
36.7859,-315.64,-0.630684
36.9866,-315.64,-0.631088
37.1859,-315.64,-0.627247
37.3866,-315.64,-0.621787
37.5887,-315.64,-0.617542
37.7882,-315.64,-0.617744
37.9888,-315.64,-0.615924
38.1897,-315.64,-0.610667
38.3905,-315.64,-0.61188
38.5909,-315.64,-0.607634
38.7912,-315.64,-0.603186
38.9918,-315.64,-0.599345
39.1919,-315.64,-0.598334
39.3922,-315.64,-0.595099
39.592,-315.64,-0.58782
39.7927,-315.64,-0.59146
39.992,-315.64,-0.587416
40.1929,-315.64,-0.582968
40.3935,-315.64,-0.580339
40.5943,-315.64,-0.582563
40.7944,-315.64,-0.577307
40.9941,-315.64,-0.575285
41.1942,-315.64,-0.567399
41.394,-315.64,-0.567602
41.5949,-315.64,-0.565984
41.7952,-315.64,-0.564164
41.9977,-315.64,-0.55911
42.197,-315.64,-0.555673
42.3978,-315.64,-0.556279
42.5982,-315.64,-0.559716
42.7988,-315.64,-0.554459
42.9986,-315.64,-0.555875
43.1988,-315.64,-0.551022
43.398,-315.64,-0.549203
43.5984,-315.64,-0.550416
43.7981,-315.64,-0.542935
43.9988,-315.64,-0.544148
44.199,-315.64,-0.544957
44.4006,-315.64,-0.545159
44.6015,-315.64,-0.540104
44.803,-315.64,-0.535858
45.0038,-315.64,-0.530804
45.2043,-315.64,-0.533432
45.4042,-315.64,-0.532421
45.6042,-315.64,-0.528175
45.8039,-315.64,-0.528782
46.0043,-315.64,-0.527367
46.204,-315.64,-0.528782
46.4043,-315.64,-0.52858
46.6044,-315.64,-0.517055
46.8041,-315.64,-0.519279
47.0041,-315.64,-0.514224
47.2042,-315.64,-0.511192
47.4045,-315.64,-0.513213
47.6039,-315.64,-0.509372
47.8039,-315.64,-0.503711
48.0041,-315.64,-0.504115
48.2068,-315.64,-0.498454
48.4067,-315.64,-0.500274
48.6066,-315.64,-0.503104
48.8065,-315.64,-0.49906
49.0062,-315.64,-0.503913
49.2065,-315.64,-0.497443
49.407,-315.64,-0.49906
49.608,-315.64,-0.49441
49.8082,-315.64,-0.49906
50.0101,-315.64,-0.494006
50.2114,-315.64,-0.489962
50.4119,-315.64,-0.49158
50.6119,-315.64,-0.499263
50.8116,-315.64,-0.493399
51.0115,-315.64,-0.493197
51.2119,-315.64,-0.486525
51.4111,-315.64,-0.486525
51.6118,-315.64,-0.48511
51.812,-315.64,-0.488547
52.0131,-315.64,-0.481672
52.2136,-315.64,-0.480864
52.4132,-315.64,-0.479853
52.6137,-315.64,-0.480864
52.8136,-315.64,-0.481066
53.0141,-315.64,-0.478235
53.2147,-315.64,-0.479448
53.4145,-315.64,-0.475809
53.6167,-315.64,-0.473989
53.8189,-315.64,-0.474798
54.0191,-315.64,-0.470754
54.2191,-315.64,-0.467924
54.4193,-315.64,-0.470552
54.6192,-315.64,-0.468328
54.8194,-315.64,-0.462667
55.0208,-315.64,-0.4657
55.2204,-315.64,-0.466104
55.4202,-315.64,-0.464284
55.6202,-315.64,-0.461049
55.821,-315.64,-0.461858
56.0204,-315.64,-0.460645
56.222,-315.64,-0.460443
56.422,-315.64,-0.457006
56.6227,-315.64,-0.45923
56.8224,-315.64,-0.455388
57.0226,-315.64,-0.455995
57.2225,-315.64,-0.458825
57.4229,-315.64,-0.455995
57.6224,-315.64,-0.458219
57.8227,-315.64,-0.453771
58.0231,-315.64,-0.456197
58.2235,-315.64,-0.451749
58.4237,-315.64,-0.447301
58.6236,-315.64,-0.447907
58.8237,-315.64,-0.447907
59.0232,-315.64,-0.446492
59.2254,-315.64,-0.446694
59.4244,-315.64,-0.448514
59.6257,-315.64,-0.443661
59.8261,-315.64,-0.439213
60.0273,-315.64,-0.439011
60.2274,-315.64,-0.440629
60.4277,-315.64,-0.440831
60.6271,-315.64,-0.441842
60.8281,-315.64,-0.440224
61.0282,-315.64,-0.439011
61.23,-315.64,-0.435776
61.431,-315.64,-0.441235
61.6309,-315.64,-0.440426
61.8312,-315.64,-0.436989
62.0329,-315.64,-0.430317
62.233,-315.64,-0.432541
62.4322,-315.64,-0.431732
62.6327,-315.64,-0.427487
62.8322,-315.64,-0.428295
63.0338,-315.64,-0.423847
63.2344,-315.64,-0.429306
63.4344,-315.64,-0.429711
63.6356,-315.64,-0.425465
63.8368,-315.64,-0.426071
64.0367,-315.64,-0.424656
64.2368,-315.64,-0.429711
64.4365,-315.64,-0.427284
64.6363,-315.64,-0.423241
64.8364,-315.64,-0.428093
65.0363,-315.64,-0.421421
65.2369,-315.64,-0.423038
65.4366,-315.64,-0.423645
65.6368,-315.64,-0.422432
65.8377,-315.64,-0.417579
66.0389,-315.64,-0.414749
66.2384,-315.64,-0.414951
66.4395,-315.64,-0.415962
66.6413,-315.64,-0.420208
66.8422,-315.64,-0.416771
67.0422,-315.64,-0.416568
67.2426,-315.64,-0.413738
67.4422,-315.64,-0.417377
67.6424,-315.64,-0.415962
67.8422,-315.64,-0.413536
68.044,-315.64,-0.410907
68.2444,-315.64,-0.410099
68.4459,-315.64,-0.41394
68.6452,-315.64,-0.412525
68.8469,-315.64,-0.415962
69.0472,-315.64,-0.414547
69.2472,-315.64,-0.409492
69.4483,-315.64,-0.409896
69.6483,-315.64,-0.411716
69.8498,-315.64,-0.408279
70.0502,-315.64,-0.402213
70.252,-315.64,-0.402618
70.4521,-315.64,-0.403224
70.6517,-315.64,-0.403426
70.853,-315.64,-0.399383
71.053,-315.64,-0.396956
71.2527,-315.64,-0.39635
71.4523,-315.64,-0.39635
71.6532,-315.64,-0.395339
71.8533,-315.64,-0.39635
72.0545,-315.64,-0.395945
72.2543,-315.64,-0.395137
72.455,-315.64,-0.402415
72.6545,-315.64,-0.397159
72.8559,-315.64,-0.401404
73.0566,-315.64,-0.397361
73.2572,-315.64,-0.395945
73.458,-315.64,-0.392306
73.6573,-315.64,-0.393721
73.8585,-315.64,-0.400191
74.0592,-315.64,-0.397967
74.2598,-315.64,-0.394126
74.4601,-315.64,-0.394935
74.6596,-315.64,-0.392508
74.8603,-315.64,-0.389273
75.0605,-315.64,-0.395541
75.2623,-315.64,-0.393317
75.4626,-315.64,-0.390689
75.6637,-315.64,-0.385836
75.8644,-315.64,-0.393317
76.0643,-315.64,-0.389476
76.2645,-315.64,-0.390689
76.4642,-315.64,-0.388262
76.6645,-315.64,-0.391295
76.8652,-315.64,-0.382601
77.0666,-315.64,-0.388465
77.2669,-315.64,-0.386241
77.467,-315.64,-0.379164
77.6667,-315.64,-0.384016
77.8668,-315.64,-0.380579
78.0673,-315.64,-0.379973
78.2678,-315.64,-0.380377
78.4687,-315.64,-0.377344
78.6686,-315.64,-0.377749
78.8692,-315.64,-0.378355
79.0689,-315.64,-0.376333
79.2693,-315.64,-0.378557
79.4696,-315.64,-0.375727
79.6693,-315.64,-0.377344
79.8693,-315.64,-0.371279
80.0706,-315.64,-0.37047
80.2705,-315.64,-0.376131
80.4705,-315.64,-0.375727
80.6712,-315.64,-0.373907
80.871,-315.64,-0.369863
81.0722,-315.64,-0.370066
81.2725,-315.64,-0.373098
81.4724,-315.64,-0.376536
81.6744,-315.64,-0.378557
81.8734,-315.64,-0.371077
82.0735,-315.64,-0.37047
82.2734,-315.64,-0.36865
82.4753,-315.64,-0.375727
82.6754,-315.64,-0.374109
82.8756,-315.64,-0.370066
83.0767,-315.64,-0.369863
83.2769,-315.64,-0.373705
83.4782,-315.64,-0.369863
83.6793,-315.64,-0.372492
83.8799,-315.64,-0.375929
84.0793,-315.64,-0.371683
84.2798,-315.64,-0.371279
84.4804,-315.64,-0.36865
84.6813,-315.64,-0.367639
84.8815,-315.64,-0.370066
85.0821,-315.64,-0.366224
85.2818,-315.64,-0.369257
85.4814,-315.64,-0.369863
85.6813,-315.64,-0.362787
85.8822,-315.64,-0.363191
86.0828,-315.64,-0.361574
86.2839,-315.64,-0.359956
86.4838,-315.64,-0.35935
86.6841,-315.64,-0.362383
86.8835,-315.64,-0.366628
87.0838,-315.64,-0.367639
87.2834,-315.64,-0.357934
87.484,-315.64,-0.356317
87.6844,-315.64,-0.352273
87.8844,-315.64,-0.356519
88.0844,-315.64,-0.352475
88.2863,-315.64,-0.355913
88.4854,-315.64,-0.358743
88.6855,-315.64,-0.357732
88.8854,-315.64,-0.35106
89.086,-315.64,-0.354093
89.2864,-315.64,-0.354295
89.4869,-315.64,-0.356721
89.6871,-315.64,-0.353082
89.8866,-315.64,-0.352475
90.0882,-315.64,-0.351464
90.2883,-315.64,-0.352273
90.4885,-315.64,-0.349847
90.689,-315.64,-0.354902
90.8885,-315.64,-0.356317
91.0894,-315.64,-0.353689
91.2915,-315.64,-0.352273
91.4918,-315.64,-0.350251
91.6922,-315.64,-0.348432
91.8918,-315.64,-0.343579
92.0918,-315.64,-0.345803
92.2924,-315.64,-0.346612
92.4938,-315.64,-0.342164
92.6955,-315.64,-0.34176
92.8968,-315.64,-0.341355
93.0979,-315.64,-0.34176
93.2989,-315.64,-0.346612
93.5,-315.64,-0.344995
93.7007,-315.64,-0.338727
93.9016,-315.64,-0.344186
94.1016,-315.64,-0.343579
94.3025,-315.64,-0.344186
94.5038,-315.64,-0.345601
94.7041,-315.64,-0.341962
94.904,-315.64,-0.339738
95.104,-315.64,-0.339333
95.3036,-315.64,-0.338929
95.5048,-315.64,-0.330437
95.7067,-315.64,-0.335694
95.9073,-315.64,-0.337716
96.1079,-315.64,-0.340951
96.3088,-315.64,-0.341355
96.5105,-315.64,-0.33994
96.7108,-315.64,-0.340344
96.9112,-315.64,-0.334076
97.1106,-315.64,-0.335694
97.3106,-315.64,-0.336098
97.511,-315.64,-0.344792
97.7106,-315.64,-0.342568
97.911,-315.64,-0.341355
98.1104,-315.64,-0.332863
98.3106,-315.64,-0.332055
98.5124,-315.64,-0.333672
98.7129,-315.64,-0.331246
98.9127,-315.64,-0.324372
99.1124,-315.64,-0.327
99.313,-315.64,-0.328011
99.5125,-315.64,-0.327404
99.7138,-315.64,-0.330841
99.9139,-315.64,-0.329628
100.1143,-315.64,-0.325787
100.3149,-315.64,-0.326393
100.5144,-315.64,-0.325585
100.7154,-315.64,-0.328415
100.9155,-315.64,-0.325382
101.1169,-315.64,-0.328011
101.3183,-315.64,-0.324574
101.5178,-315.64,-0.328415
101.718,-315.64,-0.330639
101.9189,-315.64,-0.327
102.1199,-315.64,-0.324169
102.3203,-315.64,-0.327404
102.52,-315.64,-0.322956
102.7202,-315.64,-0.327202
102.9197,-315.64,-0.329426
103.1211,-315.64,-0.32882
103.3219,-315.64,-0.329831
103.5215,-315.64,-0.326596
103.7217,-315.64,-0.321339
103.9227,-315.64,-0.320732
104.1234,-315.64,-0.322147
104.3235,-315.64,-0.322956
104.5242,-315.64,-0.324372
104.7243,-315.64,-0.328617
104.9244,-315.64,-0.323563
105.1241,-315.64,-0.320732
105.324,-315.64,-0.320732
105.5243,-315.64,-0.323563
105.7239,-315.64,-0.320732
105.9236,-315.64,-0.32053
106.1244,-315.64,-0.319923
106.3248,-315.64,-0.318306
106.5248,-315.64,-0.323765
106.7264,-315.64,-0.319317
106.9255,-315.64,-0.325382
107.1256,-315.64,-0.321339
107.327,-315.64,-0.320732
107.5274,-315.64,-0.321339
107.7295,-315.64,-0.320328
107.9292,-315.64,-0.319115
108.1293,-315.64,-0.321137
108.3287,-315.64,-0.311229
108.5291,-315.64,-0.317699
108.7288,-315.64,-0.311027
108.9293,-315.64,-0.316891
109.1308,-315.64,-0.313858
109.3305,-315.64,-0.316688
109.5334,-315.64,-0.313251
109.7325,-315.64,-0.319317
109.9333,-315.64,-0.316486
110.1328,-315.64,-0.320732
110.3333,-315.64,-0.319721
110.5333,-315.64,-0.317902
110.733,-315.64,-0.320732
110.9338,-315.64,-0.316688
111.1341,-315.64,-0.316891
111.3342,-315.64,-0.317093
111.5348,-315.64,-0.314464
111.7349,-315.64,-0.311432
111.9358,-315.64,-0.306984
112.1361,-315.64,-0.310016
112.3356,-315.64,-0.309612
112.5366,-315.64,-0.308197
112.7369,-315.64,-0.30759
112.9379,-315.64,-0.309005
113.1385,-315.64,-0.309814
113.3396,-315.64,-0.308803
113.5409,-315.64,-0.31224
113.7414,-315.64,-0.308399
113.9424,-315.64,-0.310218
114.1423,-315.64,-0.304557
114.3423,-315.64,-0.306579
114.5416,-315.64,-0.308197
114.7418,-315.64,-0.31224
114.944,-315.64,-0.306377
115.1439,-315.64,-0.30759
115.344,-315.64,-0.30577
115.545,-315.64,-0.306377
115.7456,-315.64,-0.304355
115.947,-315.64,-0.303749
116.1466,-315.64,-0.304962
116.347,-315.64,-0.302333
116.5467,-315.64,-0.302738
116.7473,-315.64,-0.300311
116.9473,-315.64,-0.297885
117.147,-315.64,-0.298492
117.3473,-315.64,-0.304759
117.547,-315.64,-0.304355
117.7474,-315.64,-0.30294
117.9476,-315.64,-0.297481
118.1486,-315.64,-0.298694
118.349,-315.64,-0.297076
118.5488,-315.64,-0.304557
118.7492,-315.64,-0.302738
118.9501,-315.64,-0.304759
119.1511,-315.64,-0.301524
119.3516,-315.64,-0.30294
119.552,-315.64,-0.293841
119.7517,-315.64,-0.296268
119.9529,-315.64,-0.2993
120.1526,-315.64,-0.303344
120.3534,-315.64,-0.300514
120.5536,-315.64,-0.29647
120.7528,-315.64,-0.2993
120.9544,-315.64,-0.298492
121.1564,-315.64,-0.301929
121.3571,-315.64,-0.300716
121.5567,-315.64,-0.301524
121.7569,-315.64,-0.294852
121.9567,-315.64,-0.304557
122.1572,-315.64,-0.299503
122.357,-315.64,-0.297885
122.5584,-315.64,-0.293841
122.7577,-315.64,-0.29283
122.9577,-315.64,-0.293437
123.1579,-315.64,-0.295055
123.3583,-315.64,-0.295055
123.5585,-315.64,-0.297481
123.7578,-315.64,-0.290404
123.9578,-315.64,-0.297279
124.1579,-315.64,-0.294852
124.3595,-315.64,-0.29465
124.5597,-315.64,-0.289393
124.7619,-315.64,-0.295055
124.9628,-315.64,-0.295863
125.1638,-315.64,-0.295459
125.365,-315.64,-0.291011
125.5648,-315.64,-0.292426
125.7662,-315.64,-0.297279
125.9666,-315.64,-0.296065
126.1675,-315.64,-0.297885
126.368,-315.64,-0.293235
126.5678,-315.64,-0.295863
126.7694,-315.64,-0.288787
126.9698,-315.64,-0.291011
127.1708,-315.64,-0.283934
127.3724,-315.64,-0.283732
127.5737,-315.64,-0.283934
127.774,-315.64,-0.287574
127.9752,-315.64,-0.287978
128.1777,-315.64,-0.289191
128.3798,-315.64,-0.285552
128.5806,-315.64,-0.288382
128.7819,-315.64,-0.284541
128.9821,-315.64,-0.288989
129.1829,-315.64,-0.291213
129.3831,-315.64,-0.287371
129.5834,-315.64,-0.287371
129.783,-315.64,-0.285147
129.9844,-315.64,-0.291011
130.1846,-315.64,-0.286967
130.3842,-315.64,-0.285552
130.5852,-315.64,-0.288382
130.7848,-315.64,-0.291415
130.9853,-315.64,-0.285754
131.1849,-315.64,-0.283934
131.385,-315.64,-0.282115
131.5848,-315.64,-0.284743
131.7849,-315.64,-0.284136
131.985,-315.64,-0.288585
132.1851,-315.64,-0.28353
132.3849,-315.64,-0.284743
132.5851,-315.64,-0.284339
132.7848,-315.64,-0.287169
132.985,-315.64,-0.282519
133.1855,-315.64,-0.283732
133.3855,-315.64,-0.279486
133.5867,-315.64,-0.279082
133.788,-315.64,-0.280093
133.9885,-315.64,-0.276656
134.1895,-315.64,-0.27888
134.3897,-315.64,-0.278677
134.5891,-315.64,-0.281104
134.789,-315.64,-0.274432
134.9904,-315.64,-0.278273
135.1909,-315.64,-0.275038
135.3915,-315.64,-0.276858
135.5908,-315.64,-0.27706
135.7937,-315.64,-0.276251
135.9943,-315.64,-0.273016
136.1962,-315.64,-0.275847
136.3988,-315.64,-0.276049
136.5998,-315.64,-0.280901
136.7994,-315.64,-0.277262
137.0003,-315.64,-0.278071
137.2016,-315.64,-0.275442
137.4008,-315.64,-0.27524
137.6012,-315.64,-0.276656
137.8028,-315.64,-0.271399
138.0018,-315.64,-0.275442
138.2024,-315.64,-0.274836
138.4018,-315.64,-0.276453
138.6018,-315.64,-0.272814
138.8022,-315.64,-0.270994
139.0026,-315.64,-0.267557
139.2037,-315.64,-0.27059
139.4037,-315.64,-0.260076
139.6033,-315.64,-0.269781
139.8033,-315.64,-0.267355
140.0038,-315.64,-0.271399
140.2047,-315.64,-0.267759
140.404,-315.64,-0.274229
140.6038,-315.64,-0.270186
140.8044,-315.64,-0.273825
141.0052,-315.64,-0.274229
141.2052,-315.64,-0.270186
141.4061,-315.64,-0.274027
141.6073,-315.64,-0.268366
141.8081,-315.64,-0.271601
142.0087,-315.64,-0.267153
142.2085,-315.64,-0.269377
142.409,-315.64,-0.262705
142.61,-315.64,-0.26594
142.8109,-315.64,-0.267557
143.0125,-315.64,-0.27524
143.2131,-315.64,-0.272814
143.4148,-315.64,-0.268366
143.6146,-315.64,-0.261289
143.8148,-315.64,-0.264524
144.0153,-315.64,-0.266748
144.2168,-315.64,-0.265333
144.4171,-315.64,-0.265535
144.618,-315.64,-0.263311
144.8182,-315.64,-0.25947
145.0197,-315.64,-0.255426
145.2192,-315.64,-0.259065
145.42,-315.64,-0.259672
145.6201,-315.64,-0.260885
145.8204,-315.64,-0.257246
146.0208,-315.64,-0.263918
146.2215,-315.64,-0.25765
146.4217,-315.64,-0.260481
146.621,-315.64,-0.259065
146.823,-315.64,-0.258054
147.0234,-315.64,-0.2623
147.2239,-315.64,-0.259065
147.4251,-315.64,-0.260481
147.6253,-315.64,-0.264322
147.8255,-315.64,-0.262907
148.0252,-315.64,-0.260076
148.225,-315.64,-0.260683
148.4252,-315.64,-0.259065
148.6252,-315.64,-0.25947
148.8263,-315.64,-0.263109
149.0271,-315.64,-0.261289
149.2284,-315.64,-0.258257
149.4294,-315.64,-0.261289
149.6315,-315.64,-0.261694
149.8338,-315.64,-0.258661
150.0324,-315.64,-0.257044
150.2329,-315.64,-0.256235
150.4331,-315.64,-0.257448
150.635,-315.64,-0.257044
150.8349,-315.64,-0.254011
151.0361,-315.64,-0.255224
151.2371,-315.64,-0.253
151.4369,-315.64,-0.256841
151.6379,-315.64,-0.254617
151.8377,-315.64,-0.255426
152.0379,-315.64,-0.255628
152.2386,-315.64,-0.255022
152.4389,-315.64,-0.255628
152.6399,-315.64,-0.257852
152.8401,-315.64,-0.25765
153.0405,-315.64,-0.25118
153.2411,-315.64,-0.255628
153.4416,-315.64,-0.252393
153.6415,-315.64,-0.248754
153.8414,-315.64,-0.252393
154.0416,-315.64,-0.250574
154.2417,-315.64,-0.248754
154.4414,-315.64,-0.250978
154.6412,-315.64,-0.251382
154.8413,-315.64,-0.257448
155.0413,-315.64,-0.260076
155.241,-315.64,-0.254819
155.4421,-315.64,-0.256033
155.6438,-315.64,-0.256033
155.8434,-315.64,-0.252191
156.045,-315.64,-0.253202
156.247,-315.64,-0.251787
156.4474,-315.64,-0.251787
156.6477,-315.64,-0.256437
156.8477,-315.64,-0.258661
157.0472,-315.64,-0.254617
157.2471,-315.64,-0.258257
157.4498,-315.64,-0.255224
157.6482,-315.64,-0.254617
157.8491,-315.64,-0.253404
158.0491,-315.64,-0.250169
158.2511,-315.64,-0.245923
158.4519,-315.64,-0.25118
158.6518,-315.64,-0.24653
158.853,-315.64,-0.246732
159.0522,-315.64,-0.247743
159.2531,-315.64,-0.25118
159.4535,-315.64,-0.253
159.6548,-315.64,-0.252191
159.8541,-315.64,-0.249967
160.0551,-315.64,-0.245923
160.2553,-315.64,-0.25118
160.4553,-315.64,-0.248754
160.6553,-315.64,-0.247339
160.8553,-315.64,-0.244508
161.0553,-315.64,-0.246328
161.257,-315.64,-0.247339
161.4577,-315.64,-0.244508
161.6578,-315.64,-0.242082
161.8572,-315.64,-0.240262
162.0571,-315.64,-0.242486
162.2579,-315.64,-0.236623
162.4579,-315.64,-0.239251
162.6576,-315.64,-0.24006
162.8571,-315.64,-0.236421
163.0573,-315.64,-0.237431
163.2581,-315.64,-0.242688
163.4589,-315.64,-0.246328
163.6599,-315.64,-0.243295
163.8603,-315.64,-0.240464
164.0602,-315.64,-0.244104
164.2602,-315.64,-0.243295
164.4618,-315.64,-0.236016
164.6611,-315.64,-0.239858
164.8626,-315.64,-0.24006
165.0638,-315.64,-0.240464
165.2643,-315.64,-0.241475
165.4661,-315.64,-0.234803
165.6651,-315.64,-0.239656
165.8663,-315.64,-0.237431
166.0661,-315.64,-0.237229
166.2669,-315.64,-0.237836
166.4671,-315.64,-0.237431
166.6678,-315.64,-0.239858
166.8686,-315.64,-0.240869
167.0682,-315.64,-0.24006
167.2693,-315.64,-0.238038
167.4696,-315.64,-0.240464
167.6701,-315.64,-0.239656
167.8714,-315.64,-0.242688
168.0716,-315.64,-0.24006
168.2719,-315.64,-0.241475
168.4731,-315.64,-0.240262
168.6733,-315.64,-0.237836
168.8732,-315.64,-0.239453
169.0742,-315.64,-0.23824
169.2747,-315.64,-0.24471
169.4749,-315.64,-0.241475
169.6743,-315.64,-0.238645
169.8755,-315.64,-0.233792
170.0769,-315.64,-0.235005
170.2776,-315.64,-0.236825
170.4776,-315.64,-0.234601
170.6789,-315.64,-0.234803
170.8804,-315.64,-0.234196
171.0821,-315.64,-0.238847
171.2823,-315.64,-0.234196
171.4836,-315.64,-0.241475
171.6835,-315.64,-0.232781
171.8835,-315.64,-0.242486
172.0831,-315.64,-0.237836
172.2842,-315.64,-0.23541
172.4852,-315.64,-0.237836
172.6852,-315.64,-0.237229
172.8864,-315.64,-0.235612
173.0874,-315.64,-0.235814
173.2911,-315.64,-0.237431
173.4921,-315.64,-0.236825
173.6921,-315.64,-0.236218
173.8915,-315.64,-0.233388
174.0926,-315.64,-0.23541
174.2925,-315.64,-0.237431
174.4931,-315.64,-0.235814
174.6925,-315.64,-0.232579
174.8923,-315.64,-0.229951
175.0932,-315.64,-0.234196
175.2936,-315.64,-0.236016
175.4941,-315.64,-0.236218
175.6947,-315.64,-0.232175
175.896,-315.64,-0.229546
176.0953,-315.64,-0.226513
176.2965,-315.64,-0.228333
176.4967,-315.64,-0.22894
176.6969,-315.64,-0.228535
176.8979,-315.64,-0.229951
177.0979,-315.64,-0.230961
177.299,-315.64,-0.224492
177.4987,-315.64,-0.224694
177.6988,-315.64,-0.227322
177.8991,-315.64,-0.226513
178.0988,-315.64,-0.22712
178.2994,-315.64,-0.226311
178.4999,-315.64,-0.227524
178.7028,-315.64,-0.23177
178.9035,-315.64,-0.228333
179.1046,-315.64,-0.224694
179.3065,-315.64,-0.227929
179.5072,-315.64,-0.226918
179.709,-315.64,-0.229142
179.9101,-315.64,-0.223885
180.1107,-315.64,-0.226311
180.3119,-315.64,-0.226109
180.5118,-315.64,-0.229546
180.7122,-315.64,-0.228737
180.9133,-315.64,-0.222672
181.1139,-315.64,-0.223076
181.3136,-315.64,-0.223481
181.5143,-315.64,-0.219639
181.7142,-315.64,-0.22065
181.9162,-315.64,-0.225705
182.1172,-315.64,-0.216
182.3178,-315.64,-0.216404
182.5197,-315.64,-0.213776
182.7197,-315.64,-0.220043
182.9207,-315.64,-0.221054
183.1222,-315.64,-0.22065
183.3223,-315.64,-0.215798
183.5232,-315.64,-0.218628
183.7234,-315.64,-0.219235
183.9261,-315.64,-0.225705
184.1256,-315.64,-0.224492
184.3271,-315.64,-0.224896
184.5269,-315.64,-0.221661
184.7266,-315.64,-0.222874
184.9264,-315.64,-0.22065
185.1279,-315.64,-0.225502
185.3277,-315.64,-0.219437
185.5276,-315.64,-0.219841
185.7289,-315.64,-0.213978
185.9292,-315.64,-0.218628
186.1299,-315.64,-0.21883
186.3312,-315.64,-0.218426
186.5302,-315.64,-0.222672
186.7308,-315.64,-0.223683
186.9308,-315.64,-0.22065
187.1306,-315.64,-0.219033
187.3305,-315.64,-0.222874
187.5314,-315.64,-0.215798
187.7318,-315.64,-0.223481
187.9342,-315.64,-0.215191
188.1352,-315.64,-0.221459
188.3348,-315.64,-0.221459
188.5373,-315.64,-0.22065
188.7369,-315.64,-0.217213
188.9379,-315.64,-0.219235
189.1376,-315.64,-0.215595
189.3387,-315.64,-0.220448
189.5386,-315.64,-0.217213
189.7383,-315.64,-0.213573
189.9386,-315.64,-0.212158
190.1398,-315.64,-0.215798
190.3397,-315.64,-0.220246
190.5398,-315.64,-0.21418
190.7397,-315.64,-0.215798
190.9408,-315.64,-0.212563
191.1415,-315.64,-0.212765
191.3432,-315.64,-0.209125
191.5442,-315.64,-0.217415
191.7452,-315.64,-0.212967
191.9451,-315.64,-0.209732
192.145,-315.64,-0.20771
192.3447,-315.64,-0.208721
192.5455,-315.64,-0.206093
192.7457,-315.64,-0.214787
192.9455,-315.64,-0.208317
193.1461,-315.64,-0.209328
193.3454,-315.64,-0.210338
193.5471,-315.64,-0.215595
193.7463,-315.64,-0.210743
193.9466,-315.64,-0.210945
194.1478,-315.64,-0.208923
194.3485,-315.64,-0.205486
194.5484,-315.64,-0.212563
194.751,-315.64,-0.207104
194.9514,-315.64,-0.213169
195.1519,-315.64,-0.211147
195.3516,-315.64,-0.21418
195.5528,-315.64,-0.208317
195.7542,-315.64,-0.211956
195.9538,-315.64,-0.208519
196.1534,-315.64,-0.209934
196.3539,-315.64,-0.211956
196.5546,-315.64,-0.211956
196.7569,-315.64,-0.208923
196.9578,-315.64,-0.209934
197.1574,-315.64,-0.207104
197.3581,-315.64,-0.206093
197.5584,-315.64,-0.205082
197.7603,-315.64,-0.204879
197.9595,-315.64,-0.210338
198.1596,-315.64,-0.210541
198.3609,-315.64,-0.206699
198.5612,-315.64,-0.206901
198.7614,-315.64,-0.210743
198.9619,-315.64,-0.204273
199.1615,-315.64,-0.201038
199.3619,-315.64,-0.206295
199.5619,-315.64,-0.209934
199.7622,-315.64,-0.209732
199.9619,-315.64,-0.206699
200.1624,-315.64,-0.206093
200.3631,-315.64,-0.203869
200.5628,-315.64,-0.202453
200.7629,-315.64,-0.20306
200.9635,-315.64,-0.205486
201.1634,-315.64,-0.204475
201.3637,-315.64,-0.206699
201.5638,-315.64,-0.202251
201.7639,-315.64,-0.205284
201.9654,-315.64,-0.202049
202.1655,-315.64,-0.200431
202.366,-315.64,-0.205082
202.5674,-315.64,-0.203666
202.7665,-315.64,-0.202251
202.9684,-315.64,-0.202858
203.1679,-315.64,-0.19942
203.3693,-315.64,-0.199623
203.5691,-315.64,-0.194164
203.7694,-315.64,-0.199218
203.9691,-315.64,-0.195781
204.1704,-315.64,-0.198612
204.3719,-315.64,-0.203666
204.5733,-315.64,-0.195377
204.7753,-315.64,-0.19942
204.9753,-315.64,-0.196185
205.176,-315.64,-0.195983
205.3757,-315.64,-0.194366
205.5773,-315.64,-0.19477
205.7776,-315.64,-0.195983
205.9785,-315.64,-0.19194
206.1797,-315.64,-0.194366
206.3812,-315.64,-0.19295
206.5816,-315.64,-0.197196
206.7822,-315.64,-0.188502
206.982,-315.64,-0.196792
207.1824,-315.64,-0.195781
207.3823,-315.64,-0.191333
207.5832,-315.64,-0.196792
207.7832,-315.64,-0.195579
207.9827,-315.64,-0.198207
208.1833,-315.64,-0.200634
208.3844,-315.64,-0.199016
208.5851,-315.64,-0.196185
208.7852,-315.64,-0.201644
208.9848,-315.64,-0.199825
209.1857,-315.64,-0.198612
209.3857,-315.64,-0.19477
209.5869,-315.64,-0.193153
209.7867,-315.64,-0.19477
209.9888,-315.64,-0.199218
210.1902,-315.64,-0.193557
210.392,-315.64,-0.193961
210.5919,-315.64,-0.191737
210.7915,-315.64,-0.194568
210.992,-315.64,-0.194164
211.192,-315.64,-0.196792
211.3919,-315.64,-0.196994
211.5932,-315.64,-0.192546
211.7928,-315.64,-0.194972
211.995,-315.64,-0.195781
212.1962,-315.64,-0.193153
212.3958,-315.64,-0.193153
212.5965,-315.64,-0.194972
212.7975,-315.64,-0.19295
212.9982,-315.64,-0.193153
213.1979,-315.64,-0.197399
213.3995,-315.64,-0.195983
213.6004,-315.64,-0.197399
213.8013,-315.64,-0.195579
214.001,-315.64,-0.195579
214.2012,-315.64,-0.19659
214.401,-315.64,-0.198612
214.6012,-315.64,-0.193153
214.8014,-315.64,-0.19477
215.0008,-315.64,-0.191131
215.201,-315.64,-0.192748
215.4033,-315.64,-0.193557
215.6033,-315.64,-0.19295
215.8039,-315.64,-0.186683
216.0044,-315.64,-0.186885
216.2047,-315.64,-0.186481
216.4051,-315.64,-0.193355
216.6059,-315.64,-0.188098
216.8058,-315.64,-0.19194
217.0068,-315.64,-0.189513
217.2068,-315.64,-0.185672
217.4092,-315.64,-0.188705
217.61,-315.64,-0.192748
217.8107,-315.64,-0.190524
218.0126,-315.64,-0.187896
218.2126,-315.64,-0.192142
218.4131,-315.64,-0.189513
218.6145,-315.64,-0.190726
218.8147,-315.64,-0.191535
219.0166,-315.64,-0.192748
219.2174,-315.64,-0.188705
219.4167,-315.64,-0.186481
219.6172,-315.64,-0.186683
219.8175,-315.64,-0.190929
220.0171,-315.64,-0.190929
220.2187,-315.64,-0.19194
220.4198,-315.64,-0.193355
220.6213,-315.64,-0.19194
220.8228,-315.64,-0.189109
221.0237,-315.64,-0.187491
221.224,-315.64,-0.189918
221.4239,-315.64,-0.190726
221.6259,-315.64,-0.188098
221.8256,-315.64,-0.184256
222.0259,-315.64,-0.187087
222.2256,-315.64,-0.181224
222.4268,-315.64,-0.183246
222.6292,-315.64,-0.187694
222.8299,-315.64,-0.187491
223.03,-315.64,-0.1883
223.2308,-315.64,-0.188098
223.4313,-315.64,-0.186278
223.6313,-315.64,-0.185874
223.8309,-315.64,-0.187896
224.031,-315.64,-0.187289
224.2308,-315.64,-0.187896
224.431,-315.64,-0.185267
224.6307,-315.64,-0.185065